Folder: cone-db/Exp-Data_Prepared-Final/FTT-White/2018

File: Balsa_50kW_hor_Average.csv
Time (s),HRRPUA (kW/m2),Uc HRRPUA (kW/m2)
1.0,-0.801393,
3.0,-0.500745,-1.50327
5.0,0.0674498,2.61156
7.0,0.0808771,2.12825
9.0,0.712552,1.73399
11.0,0.0773448,2.86611
13.0,0.522667,2.08059
15.0,0.856579,2.83615
17.0,2.66053,12.7525
19.0,27.0362,47.7182
21.0,77.7151,61.9298
23.0,133.277,39.6821
25.0,162.696,9.77367
27.0,171.066,10.231
29.0,165.453,19.7006
31.0,154.073,22.0271
33.0,140.041,18.7559
35.0,128.006,15.9095
37.0,119.383,15.3561
39.0,110.963,12.9633
41.0,104.485,12.7418
43.0,99.9597,12.8655
45.0,94.8881,11.1381
47.0,90.8527,11.7054
49.0,88.5392,10.3037
51.0,86.0097,8.28924
53.0,82.981,8.85449
55.0,82.455,8.1053
57.0,80.0468,6.93763
59.0,78.1478,7.73779
61.0,77.2187,6.86852
63.0,74.5874,6.33378
65.0,73.2808,6.1431
67.0,71.8603,5.69015
69.0,70.3237,4.98607
71.0,69.9351,6.1893
73.0,70.1121,5.76947
75.0,68.2987,5.33146
77.0,66.5328,6.4533
79.0,66.0565,7.01459
81.0,63.7972,5.17714
83.0,63.5012,6.71929
85.0,63.6572,6.67576
87.0,62.7744,4.94788
89.0,62.1987,6.55009
91.0,61.9063,6.34506
93.0,61.3299,5.73971
95.0,60.4762,6.88123
97.0,60.3362,7.65953
99.0,59.2223,5.96027
101.0,59.428,7.32354
103.0,59.322,7.29394
105.0,59.1081,6.51435
107.0,60.1177,6.61004
109.0,60.0686,7.1676
111.0,58.4796,6.72332
113.0,60.3946,7.19675
115.0,60.1265,7.80278
117.0,59.4361,8.41144
119.0,60.6303,8.84515
121.0,60.168,9.52956
123.0,60.8049,9.4288
125.0,62.8362,9.29557
127.0,61.6446,10.3856
129.0,61.7656,10.0699
131.0,62.9904,9.3291
133.0,62.81,11.0435
135.0,62.3926,9.65512
137.0,63.8736,9.12949
139.0,64.2464,10.4635
141.0,64.0743,7.88393
143.0,64.2073,8.65284
145.0,64.3805,9.85863
147.0,65.3575,8.69478
149.0,64.9381,8.62444
151.0,65.1297,8.56616
153.0,64.7384,6.42709
155.0,64.1506,6.58766
157.0,62.5295,6.81388
159.0,63.1483,5.087
161.0,61.6786,5.33348
163.0,59.912,4.17984
165.0,60.6905,4.84666
167.0,60.2291,4.89217
169.0,59.3989,5.55645
171.0,60.2567,7.38848
173.0,58.6178,6.36099
175.0,57.5517,7.91532
177.0,57.8289,9.54192
179.0,56.8257,8.95173
181.0,56.125,10.5123
183.0,57.097,11.7683
185.0,56.3542,10.0913
187.0,55.6251,12.3445
189.0,55.7108,13.8163
191.0,54.9072,12.7021
193.0,53.932,15.2117
195.0,54.1055,15.4953
197.0,53.5748,13.5689
199.0,53.9452,16.4261
201.0,54.0341,16.2275
203.0,52.8073,14.7054
205.0,52.4839,17.6671
207.0,52.2383,16.9556
209.0,50.7664,15.8862
211.0,50.9865,18.9532
213.0,50.9036,17.3061
215.0,50.0542,16.4752
217.0,50.7547,19.4823
219.0,49.902,18.2837
221.0,47.947,17.6345
223.0,47.9174,20.1052
225.0,47.8728,18.7808
227.0,47.1796,18.4601
229.0,47.4226,20.8009
231.0,46.8974,18.8608
233.0,46.1995,18.7831
235.0,47.4664,20.6831
237.0,46.1916,18.2246
239.0,44.995,18.5977
241.0,44.9351,19.7423
243.0,44.4756,17.5057
245.0,43.8575,17.7063
247.0,44.6713,18.1787
249.0,43.3301,15.0902
251.0,42.713,16.5721
253.0,43.0763,17.1583
255.0,41.6876,14.4914
257.0,41.0997,16.2388
259.0,41.5116,16.6547
261.0,40.5056,13.6801
263.0,40.6817,15.479
265.0,40.8412,15.3643
267.0,39.6684,12.967
269.0,38.8192,14.6151
271.0,39.4174,14.2816
273.0,38.1744,11.9642
275.0,39.1702,15.6967
277.0,38.9252,14.8747
279.0,38.236,12.7306
281.0,38.7974,14.7507
283.0,38.8582,13.3529
285.0,37.9046,11.9818
287.0,38.7085,14.119
289.0,38.7965,12.5016
291.0,38.4429,13.0135
293.0,38.9904,16.1341
295.0,38.6301,14.5662
297.0,38.3198,14.5565
299.0,39.4343,16.5869
301.0,38.7241,14.8704
303.0,38.0139,15.3165
305.0,38.7445,16.7836
307.0,38.1111,14.5476
309.0,37.5857,14.2798
311.0,37.9065,14.9974
313.0,37.2265,12.5771
315.0,36.2779,13.292
317.0,36.3461,14.0094
319.0,35.2243,11.0772
321.0,35.3573,12.3884
323.0,35.0174,13.1916
325.0,34.1108,9.85035
327.0,33.6591,11.4592
329.0,33.7812,10.9406
331.0,32.7266,8.21279
333.0,33.3128,10.5842
335.0,33.5795,10.3902
337.0,32.4229,7.51687
339.0,32.3798,10.3382
341.0,32.2782,8.965
343.0,31.5684,7.07429
345.0,32.0646,9.80103
347.0,32.3539,8.75442
349.0,31.5228,7.29543
351.0,31.6592,9.72868
353.0,31.5351,9.89546
355.0,31.1694,8.11853
357.0,31.0987,10.4859
359.0,30.4731,7.48197
361.0,29.7053,6.49585
363.0,29.6366,9.57017
365.0,29.3559,7.00109
367.0,29.0973,6.72687
369.0,28.6317,8.96646
371.0,31.618,3.12237
373.0,32.8366,2.34129
375.0,34.3505,1.41866
377.0,31.8261,1.0114
379.0,33.7658,2.50181
381.0,34.8609,2.54991
383.0,32.5454,3.20692
385.0,34.2516,0.508856
387.0,34.2495,3.42681
389.0,31.1679,0.958971
391.0,32.8514,2.70189
393.0,32.1681,1.70497
395.0,29.2567,0.48158
397.0,32.371,1.70746
399.0,31.4742,2.87287
401.0,29.636,1.29716
403.0,32.241,0.951303
405.0,30.6288,3.23596
407.0,29.1383,0.974843
409.0,31.6607,0.839991
411.0,29.5695,2.75852
413.0,28.5741,1.02301
415.0,31.0021,1.09552
417.0,29.6534,2.85357
419.0,29.064,0.425699
421.0,31.5171,0.295096
423.0,29.3734,2.40394
425.0,29.5161,1.37903
427.0,31.7926,0.972048
429.0,30.33,2.07599
431.0,31.6508,1.21834
433.0,34.002,0.18817
435.0,31.3556,1.31664
437.0,32.2351,2.08513
439.0,33.0251,0.808909
441.0,30.4157,1.08978
443.0,31.6427,1.80812
445.0,31.8619,0.685409
447.0,28.8515,0.913368
449.0,31.5066,1.366
451.0,31.5276,0.985543
453.0,29.1367,1.01358
455.0,31.943,1.85062
457.0,29.8976,0.397262
459.0,28.705,0.733182
461.0,31.7905,1.80663
463.0,30.75,0.861231
465.0,29.2995,0.455299
467.0,32.5275,1.13572
469.0,31.4004,0.215327
471.0,30.4599,1.11532
473.0,33.9607,1.22576
475.0,31.2413,0.196179
477.0,30.5054,0.699828
479.0,34.4693,1.25263
481.0,31.2764,2.27681
483.0,31.2511,0.67672
485.0,33.9769,0.758466
487.0,30.3151,1.09957
489.0,29.8387,1.37975
491.0,32.8031,0.0653783
493.0,29.2386,
495.0,31.194,
497.0,32.6486,
499.0,29.3103,
501.0,31.1564,
503.0,30.4303,
505.0,27.7437,
507.0,30.9716,
509.0,29.9421,
511.0,27.7893,
513.0,31.1012,
515.0,29.6892,
517.0,26.7883,
519.0,30.4597,

File: Cypress_50kW_hor_Average.csv
Time (s),HRRPUA (kW/m2),Uc HRRPUA (kW/m2)
0.0,1.73099,
3.0,-1.31482,
6.0,-0.330263,-2.09616
9.0,0.889171,1.88885
12.0,-0.838795,-0.981469
15.0,1.49898,2.61952
18.0,-0.377868,-0.938901
21.0,1.99916,3.13943
24.0,0.599877,1.82243
27.0,2.62395,4.89826
30.0,0.620068,2.39183
33.0,3.08934,3.61669
36.0,2.92844,3.35124
39.0,4.46263,5.35295
42.0,14.153,21.9191
45.0,60.146,46.0494
48.0,128.506,26.0204
51.0,173.336,12.4149
54.0,180.376,10.7997
57.0,174.53,12.6532
60.0,160.41,16.3862
63.0,146.012,9.47875
66.0,134.335,9.28296
69.0,127.124,3.58434
72.0,119.822,5.12632
75.0,116.157,1.17032
78.0,110.324,6.29861
81.0,107.692,1.0606
84.0,105.013,8.322
87.0,101.126,4.08748
90.0,99.8989,5.91452
93.0,98.1841,3.69875
96.0,95.6865,3.27381
99.0,94.3349,5.21521
102.0,93.3477,4.82378
105.0,90.3198,4.3229
108.0,90.2266,1.67592
111.0,86.5985,4.4243
114.0,89.5152,1.87106
117.0,85.4324,4.16176
120.0,85.8208,0.563246
123.0,82.6739,1.28112
126.0,84.7007,1.5241
129.0,81.4438,1.30654
132.0,81.6971,2.50057
135.0,77.9279,0.90855
138.0,78.5833,2.61182
141.0,76.2809,1.8967
144.0,79.3774,3.02732
147.0,76.5196,1.18752
150.0,78.3242,3.89298
153.0,75.7863,2.42377
156.0,76.6698,3.363
159.0,75.5893,3.63109
162.0,76.1893,3.84603
165.0,74.4907,4.0351
168.0,75.901,3.6162
171.0,74.7473,3.28466
174.0,74.9021,4.5237
177.0,74.5074,2.65397
180.0,73.6987,3.37365
183.0,73.4763,1.46672
186.0,73.8277,3.6117
189.0,74.38,1.43088
192.0,74.7698,5.1893
195.0,76.1685,2.96694
198.0,74.2105,5.23284
201.0,74.7305,1.98525
204.0,74.2872,1.56889
207.0,76.2015,3.10222
210.0,74.3951,4.95492
213.0,75.439,5.9008
216.0,73.8632,3.8811
219.0,74.7432,5.173
222.0,72.7588,3.19241
225.0,74.3164,4.29023
228.0,71.8115,1.99352
231.0,73.9009,4.3769
234.0,71.1658,0.839213
237.0,72.8619,2.66281
240.0,72.955,2.00048
243.0,73.6511,1.60467
246.0,72.0212,2.35656
249.0,74.3428,1.57224
252.0,72.8646,1.29629
255.0,74.4729,4.47047
258.0,74.4547,4.04058
261.0,76.6782,6.9927
264.0,76.0999,4.16162
267.0,75.5909,4.65995
270.0,74.128,1.58288
273.0,73.2887,2.09114
276.0,74.3694,2.91177
279.0,74.5543,1.48672
282.0,74.8789,3.9276
285.0,74.2953,0.530899
288.0,75.6993,3.90241
291.0,74.4858,1.40571
294.0,77.2423,5.57279
297.0,74.6518,3.27259
300.0,77.4672,6.15376
303.0,76.4522,3.8891
306.0,79.3099,6.95429
309.0,78.8562,5.81945
312.0,79.9699,7.42075
315.0,78.5327,7.17168
318.0,79.4964,5.5939
321.0,78.2417,6.92844
324.0,81.1213,6.22571
327.0,78.5668,5.39793
330.0,80.5803,4.7573
333.0,79.2094,6.3245
336.0,79.8592,4.11276
339.0,78.6217,7.28873
342.0,82.8898,4.69402
345.0,80.4235,7.17444
348.0,82.2886,4.67273
351.0,81.6992,6.54863
354.0,84.8031,4.81217
357.0,84.5778,8.43881
360.0,86.2607,5.23502
363.0,86.1308,8.98975
366.0,86.5654,3.97729
369.0,87.6498,8.37445
372.0,89.7471,3.9937
375.0,90.8146,9.13824
378.0,92.2078,5.09631
381.0,94.0995,9.78157
384.0,94.2358,6.09532
387.0,97.1788,9.12497
390.0,97.5572,7.67891
393.0,101.074,10.4416
396.0,101.156,5.95025
399.0,103.754,9.26441
402.0,103.937,6.5857
405.0,107.529,11.0412
408.0,108.109,9.74617
411.0,113.047,12.9905
414.0,111.476,10.9839
417.0,115.472,12.8474
420.0,116.472,13.8297
423.0,117.423,11.7193
426.0,117.584,12.2207
429.0,120.236,12.5749
432.0,121.643,10.9946
435.0,125.579,11.5866
438.0,127.825,10.3634
441.0,131.607,11.9021
444.0,131.552,12.9298
447.0,135.454,11.4331
450.0,137.12,11.2885
453.0,140.282,13.2102
456.0,141.686,13.7864
459.0,142.949,12.3017
462.0,146.374,11.7941
465.0,147.814,12.1246
468.0,148.407,14.088
471.0,148.909,8.97615
474.0,152.182,14.9095
477.0,155.625,13.6011
480.0,156.513,12.5812
483.0,155.923,10.9708
486.0,160.514,11.7659
489.0,160.627,13.1143
492.0,160.322,16.8071
495.0,159.961,14.6174
498.0,160.84,14.757
501.0,163.317,12.2403
504.0,165.247,13.0169
507.0,161.761,12.0145
510.0,164.423,11.8205
513.0,162.517,13.4287
516.0,162.418,16.2262
519.0,160.761,14.3613
522.0,159.288,17.3163
525.0,156.591,15.5113
528.0,157.308,17.2828
531.0,154.906,16.7097
534.0,154.71,21.8513
537.0,151.183,21.3622
540.0,150.57,22.8034
543.0,145.217,21.6381
546.0,144.574,25.1175
549.0,139.507,21.9466
552.0,138.632,26.8771
555.0,134.633,23.4564
558.0,132.263,24.8893
561.0,128.589,22.0026
564.0,123.912,24.1277
567.0,120.68,21.6444
570.0,118.14,26.7018
573.0,114.037,19.2076
576.0,109.296,24.4188
579.0,106.841,18.521
582.0,100.932,19.7824
585.0,98.6987,16.8282
588.0,93.8554,15.9835
591.0,93.9343,11.9364
594.0,89.1511,15.995
597.0,89.3813,12.8396
600.0,85.6843,14.6893
603.0,85.1375,11.9629
606.0,80.5632,13.1047
609.0,80.1067,10.1172
612.0,75.6719,9.1447
615.0,75.3878,8.69313
618.0,71.0915,7.52731
621.0,71.3052,7.25749
624.0,69.3435,7.95546
627.0,69.9355,7.42519
630.0,65.7671,6.32777
633.0,65.2969,7.51983
636.0,61.6046,5.68915
639.0,60.9968,7.21291
642.0,59.086,4.7817
645.0,58.7341,5.64558
648.0,54.0031,3.0133
651.0,54.1839,4.09367
654.0,52.4399,4.07196
657.0,51.4185,2.67243
660.0,49.8117,3.75356
663.0,48.8844,3.1597
666.0,47.8636,2.48745
669.0,47.2054,2.80891
672.0,47.478,2.96308
675.0,44.7807,2.36322
678.0,45.6125,2.86986
681.0,42.7285,3.89823
684.0,43.343,2.53872
687.0,40.7521,3.84042
690.0,41.7244,1.3542
693.0,39.3616,3.82298
696.0,41.4209,2.07571
699.0,39.175,4.11271
702.0,40.8993,1.1066
705.0,38.4817,2.94533
708.0,40.6801,2.87009
711.0,38.4116,3.23171
714.0,40.7009,2.14207
717.0,38.4978,1.75096
720.0,40.0178,2.36475
723.0,36.7023,1.38859
726.0,38.1353,2.88531
729.0,36.2094,0.336376
732.0,37.9508,2.85237
735.0,35.9899,0.548052
738.0,37.5612,3.47465
741.0,37.0591,0.435175
744.0,37.4589,3.97886
747.0,36.6867,1.20195
750.0,36.5758,3.28687
753.0,35.9276,0.453881
756.0,35.4977,5.22694
759.0,35.5504,1.83692
762.0,34.4939,4.83012
765.0,35.11,0.049608
768.0,34.6732,3.44623
771.0,35.1319,1.05776
774.0,34.0351,2.97538
777.0,35.59,0.0714212
780.0,34.0054,2.86896
783.0,35.3072,1.20106
786.0,33.0684,4.79509
789.0,34.4906,2.93309
792.0,33.6844,5.46146
795.0,35.1187,3.11376
798.0,33.5546,2.677
801.0,34.9918,1.75999
804.0,33.258,2.72261
807.0,34.1811,3.74142
810.0,29.4934,
813.0,31.0369,
816.0,32.199,
819.0,30.5658,
822.0,31.9258,
823.0,33.8206,

File: Ebony_50kW_hor_Average.csv
Time (s),HRRPUA (kW/m2),Uc HRRPUA (kW/m2)
0.0,-0.383942,-1.42561
4.0,-0.398415,-2.8692
8.0,0.754749,2.11999
12.0,1.01404,0.384453
16.0,-0.0613539,-2.19701
20.0,0.720593,0.494264
24.0,1.33369,2.76321
28.0,0.165457,1.30834
32.0,0.651093,2.73922
36.0,1.67068,3.77879
40.0,-0.105069,-0.755829
44.0,1.47644,1.98941
48.0,3.06595,2.23102
52.0,0.838561,2.43299
56.0,-0.648256,-2.23046
60.0,3.60514,3.29964
64.0,42.2607,71.6004
68.0,65.3342,107.552
72.0,115.925,100.648
76.0,148.814,83.6738
80.0,198.283,23.2746
84.0,200.109,41.406
88.0,183.075,36.1152
92.0,165.785,21.3918
96.0,156.269,18.4728
100.0,147.225,17.4471
104.0,138.711,9.98057
108.0,132.588,8.37544
112.0,127.597,9.84046
116.0,122.001,6.08904
120.0,120.068,3.20105
124.0,116.095,7.00194
128.0,111.461,5.95547
132.0,109.461,3.72007
136.0,109.796,6.59738
140.0,105.905,6.23422
144.0,103.496,5.49901
148.0,102.174,5.87453
152.0,100.118,7.65165
156.0,97.1983,4.97536
160.0,97.5614,5.7211
164.0,97.9013,8.55503
168.0,94.7303,4.9402
172.0,93.9321,6.03853
176.0,93.1736,8.93235
180.0,92.1217,6.24157
184.0,90.326,7.50371
188.0,90.9573,9.37707
192.0,88.6356,9.74737
196.0,87.2241,6.59764
200.0,88.749,8.54649
204.0,87.4532,7.89917
208.0,85.5179,6.82074
212.0,85.483,9.09353
216.0,85.0847,9.23056
220.0,81.8104,6.63892
224.0,81.1414,8.20361
228.0,81.6192,8.43474
232.0,80.8136,6.48213
236.0,80.8012,5.53072
240.0,81.041,7.47031
244.0,78.039,5.31761
248.0,78.2771,5.82643
252.0,80.3414,5.40595
256.0,76.5919,3.44233
260.0,76.3642,4.71096
264.0,77.3447,3.67056
268.0,77.0606,1.4823
272.0,75.854,3.25097
276.0,77.2606,2.6875
280.0,77.6518,4.41655
284.0,76.5978,3.12174
288.0,76.9204,2.63772
292.0,77.5907,3.19995
296.0,74.2929,0.521311
300.0,76.1872,2.83537
304.0,77.9096,0.946197
308.0,76.344,1.44547
312.0,76.8535,1.85639
316.0,78.7008,1.27883
320.0,76.9516,0.372737
324.0,75.9505,3.53004
328.0,77.1277,1.76677
332.0,76.5827,2.58993
336.0,76.4963,1.58623
340.0,77.8631,1.97108
344.0,78.7684,3.82501
348.0,77.8493,0.796864
352.0,77.7894,1.92359
356.0,78.6987,6.56064
360.0,78.0475,3.07028
364.0,79.8588,1.94168
368.0,81.089,5.97973
372.0,79.279,5.40292
376.0,80.0013,3.10713
380.0,80.4278,6.20536
384.0,82.6782,4.20132
388.0,83.0696,1.4143
392.0,82.5249,3.62032
396.0,82.5185,4.36138
400.0,81.6308,0.61024
404.0,81.9047,3.5126
408.0,84.1175,7.04966
412.0,82.4934,3.5846
416.0,83.1767,2.00364
420.0,85.0381,5.47472
424.0,83.8246,3.43823
428.0,84.914,1.26553
432.0,85.2561,5.73742
436.0,83.4635,5.00514
440.0,85.3288,1.7063
444.0,86.3128,5.54136
448.0,84.871,5.23382
452.0,87.3271,1.98036
456.0,89.936,6.59649
460.0,92.0672,5.80481
464.0,90.7227,2.12106
468.0,93.239,3.40171
472.0,93.8155,3.78913
476.0,94.7448,2.21936
480.0,97.1106,2.83663
484.0,99.3353,5.06523
488.0,99.9568,3.20515
492.0,102.023,1.16934
496.0,105.618,6.17325
500.0,105.223,4.91949
504.0,109.537,5.13335
508.0,109.576,6.23249
512.0,113.403,5.674
516.0,118.541,4.13808
520.0,119.22,4.90764
524.0,122.412,5.45745
528.0,128.765,3.31198
532.0,137.424,2.36562
536.0,142.698,2.384
540.0,149.811,6.52483
544.0,155.051,5.56694
548.0,167.512,6.4234
552.0,174.914,11.129
556.0,179.925,12.1524
560.0,192.436,8.41814
564.0,201.256,14.3873
568.0,209.721,9.81746
572.0,216.782,12.5728
576.0,224.326,13.7968
580.0,232.889,16.1542
584.0,238.138,26.471
588.0,245.038,27.768
592.0,250.376,23.5278
596.0,254.384,30.1007
600.0,257.948,24.9984
604.0,260.765,20.2534
608.0,263.642,23.6191
612.0,268.667,24.468
616.0,269.807,23.3695
620.0,273.083,19.9376
624.0,280.504,25.6103
628.0,281.039,25.0726
632.0,280.269,25.854
636.0,285.858,27.8763
640.0,286.974,33.0575
644.0,282.612,29.2255
648.0,279.18,35.5113
652.0,277.011,32.1313
656.0,262.583,30.9838
660.0,254.886,33.1846
664.0,242.431,36.9868
668.0,227.951,33.1884
672.0,221.817,35.7736
676.0,218.849,35.8302
680.0,209.802,29.5022
684.0,201.289,26.8199
688.0,193.487,31.407
692.0,183.1,27.0543
696.0,171.942,24.1726
700.0,163.525,25.6575
704.0,151.669,17.6463
708.0,141.332,12.7777
712.0,130.665,15.0263
716.0,123.655,13.9572
720.0,114.083,7.40402
724.0,109.726,6.49211
728.0,103.152,7.59177
732.0,97.3429,4.68915
736.0,92.9729,4.27678
740.0,87.4295,6.46514
744.0,81.0124,4.36624
748.0,77.4805,2.68165
752.0,76.3602,3.08748
756.0,71.8186,2.26566
760.0,70.0913,3.23244
764.0,68.8499,0.423391
768.0,66.1107,0.584748
772.0,65.37,3.5513
776.0,66.6837,1.57284
780.0,65.0561,1.5329
784.0,62.7934,6.59754
788.0,63.5302,4.39019
792.0,63.637,1.72842
796.0,61.3541,5.78205
800.0,61.9141,8.07433
804.0,64.4038,5.80838
808.0,61.4644,7.86663
812.0,61.5566,12.1953
816.0,62.9909,9.34383
820.0,61.7454,11.2176
824.0,60.5382,13.4333
828.0,60.3871,8.32286
832.0,59.1015,7.08181
836.0,58.3683,9.73987
840.0,59.4036,7.18001
844.0,57.373,5.47171
848.0,55.4351,10.5176
852.0,55.9169,6.92279
856.0,56.7449,5.17216
860.0,54.6913,9.13797
864.0,54.9966,7.80575
868.0,55.848,2.57336
872.0,54.099,6.38095
876.0,53.9044,8.52245
880.0,54.2288,4.02196
884.0,52.5243,5.84137
888.0,51.4734,7.41109
892.0,52.6095,3.86449
896.0,50.8885,4.12344
900.0,49.9688,7.73877
904.0,52.3652,4.2403
908.0,52.071,4.37591
912.0,51.9488,9.12179
916.0,52.6597,6.23906
920.0,49.8816,2.45567
924.0,50.525,6.66873
928.0,51.2238,7.04571
932.0,51.2563,2.70168
936.0,48.9069,6.57498
940.0,49.286,6.33614
944.0,48.9026,0.477014
948.0,50.506,
952.0,52.4394,
956.0,49.3115,
960.0,48.6412,
964.0,51.3384,
967.0,47.2449,

File: Fir_50kW_hor_Average.csv
Time (s),HRRPUA (kW/m2),Uc HRRPUA (kW/m2)
0.0,-1.27919,-0.0164571
3.0,1.30486,1.83407
6.0,0.645062,2.71271
9.0,1.85076,3.04677
12.0,0.945998,2.13496
15.0,1.18025,2.70767
18.0,0.532815,1.92345
21.0,0.701477,3.48121
24.0,-0.263983,-1.46757
27.0,-0.577063,-2.46622
30.0,-0.910906,-1.90952
33.0,24.5053,41.0365
36.0,78.5829,74.5274
39.0,111.548,111.431
42.0,144.249,88.8507
45.0,190.568,7.84159
48.0,194.724,27.8231
51.0,182.607,28.9126
54.0,166.507,22.6244
57.0,154.134,19.5827
60.0,143.25,14.4429
63.0,132.89,13.6715
66.0,125.591,8.5982
69.0,120.949,11.5173
72.0,115.229,8.06427
75.0,110.853,8.78007
78.0,107.996,7.61031
81.0,104.17,6.38544
84.0,100.017,8.34864
87.0,97.2185,7.48445
90.0,94.9104,8.19431
93.0,92.8213,5.54073
96.0,92.5211,8.88494
99.0,91.3533,5.33977
102.0,89.8989,8.6936
105.0,87.1644,6.91197
108.0,87.0099,7.3101
111.0,86.4966,6.51324
114.0,88.8951,10.1529
117.0,86.738,6.26533
120.0,87.5407,9.47002
123.0,85.7997,7.71165
126.0,84.8376,9.98848
129.0,83.4856,8.75146
132.0,83.5633,12.4681
135.0,82.9239,9.52643
138.0,81.1475,13.1853
141.0,80.1264,8.99655
144.0,82.4422,14.0358
147.0,83.5972,11.6404
150.0,83.9746,14.316
153.0,84.5437,11.5162
156.0,83.8978,14.4635
159.0,83.8077,10.9854
162.0,85.2726,12.9219
165.0,84.4401,10.8004
168.0,85.0419,11.5822
171.0,84.932,10.1075
174.0,84.4948,11.8987
177.0,84.981,9.1858
180.0,84.1015,11.565
183.0,84.9485,9.50525
186.0,84.5675,9.19804
189.0,86.2881,8.71767
192.0,85.9412,9.05829
195.0,84.8877,8.67453
198.0,83.4213,7.20531
201.0,84.8762,9.1673
204.0,83.5393,6.42214
207.0,84.0426,7.82037
210.0,82.7024,6.86377
213.0,82.16,8.28265
216.0,80.1212,7.69188
219.0,81.918,10.4519
222.0,81.7275,7.24371
225.0,81.3375,10.8627
228.0,79.9935,8.44836
231.0,80.7462,11.7713
234.0,79.6613,9.51773
237.0,80.4226,10.7793
240.0,79.3355,9.04872
243.0,78.8107,10.3455
246.0,78.1461,7.53423
249.0,78.4123,9.67845
252.0,77.4544,7.32305
255.0,78.1139,9.26509
258.0,77.8857,9.24644
261.0,78.1966,9.62121
264.0,78.5417,10.4447
267.0,79.3297,9.29271
270.0,80.5064,11.9757
273.0,79.4981,10.8217
276.0,79.0245,11.6973
279.0,78.3566,11.2265
282.0,79.5822,13.2771
285.0,79.422,12.2942
288.0,79.7708,14.3824
291.0,78.5993,10.6253
294.0,79.1203,14.2942
297.0,78.7118,11.1965
300.0,79.7083,13.7469
303.0,79.8674,10.1568
306.0,80.9727,13.0527
309.0,82.1831,11.1302
312.0,84.459,12.7728
315.0,85.1828,10.52
318.0,85.7374,12.4456
321.0,87.5067,9.03629
324.0,89.3603,12.8083
327.0,89.3151,8.83342
330.0,90.9092,11.1175
333.0,92.7509,6.9811
336.0,94.9415,11.0519
339.0,95.5288,7.35462
342.0,96.9802,9.26851
345.0,98.6381,6.4315
348.0,101.831,7.03912
351.0,102.613,5.13311
354.0,104.726,6.30806
357.0,107.169,4.06151
360.0,107.665,5.38864
363.0,111.571,5.30671
366.0,113.439,5.12046
369.0,116.287,5.8187
372.0,118.038,4.82769
375.0,120.644,5.00564
378.0,124.041,2.11011
381.0,126.956,1.0894
384.0,130.107,1.45716
387.0,135.358,2.67337
390.0,137.474,1.94482
393.0,139.494,4.28244
396.0,142.351,3.25003
399.0,145.559,2.99931
402.0,147.635,3.10955
405.0,148.967,7.51135
408.0,149.573,4.69538
411.0,152.941,6.16829
414.0,151.993,5.76952
417.0,152.679,8.54124
420.0,152.672,10.798
423.0,155.588,16.3977
426.0,154.059,18.3315
429.0,156.859,21.9579
432.0,157.68,21.3179
435.0,159.148,20.2477
438.0,161.615,19.4794
441.0,161.851,17.435
444.0,164.812,19.9383
447.0,163.547,17.5848
450.0,166.991,18.6364
453.0,169.316,15.6293
456.0,170.344,15.5002
459.0,170.59,14.2485
462.0,172.655,14.7884
465.0,172.38,11.4085
468.0,171.256,15.0813
471.0,171.321,16.419
474.0,171.233,19.4844
477.0,169.49,13.7505
480.0,166.845,18.2103
483.0,166.788,18.0225
486.0,167.044,16.4227
489.0,162.125,13.9178
492.0,159.326,19.7247
495.0,155.034,17.9798
498.0,150.412,20.3503
501.0,145.912,20.0539
504.0,143.083,28.2524
507.0,136.666,24.8228
510.0,129.934,28.8734
513.0,123.783,25.6171
516.0,117.734,26.0481
519.0,111.8,24.3611
522.0,106.314,24.5822
525.0,102.714,22.4986
528.0,98.0195,23.0899
531.0,92.9331,22.5147
534.0,89.5711,20.5839
537.0,84.456,22.7584
540.0,80.3488,20.5393
543.0,75.7849,21.021
546.0,72.4186,17.3005
549.0,68.5545,18.6849
552.0,65.3323,13.716
555.0,61.4663,18.7067
558.0,60.2785,15.646
561.0,58.4735,17.6015
564.0,56.4357,13.4649
567.0,55.8091,15.2158
570.0,54.7488,10.671
573.0,52.4371,12.7846
576.0,49.968,8.51481
579.0,49.3678,12.1894
582.0,49.3633,7.11259
585.0,49.7757,7.61421
588.0,48.0089,5.4578
591.0,46.5515,8.20523
594.0,43.9546,6.48322
597.0,43.493,9.02868
600.0,41.7635,6.77629
603.0,42.6404,6.96602
606.0,42.4304,5.86171
609.0,42.8361,7.86402
612.0,41.8683,6.32269
615.0,42.0564,6.66014
618.0,41.2201,6.17802
621.0,41.1124,5.8176
624.0,41.4359,5.89056
627.0,40.9339,4.69286
630.0,39.8262,5.62262
633.0,39.5166,3.4461
636.0,39.103,3.92591
639.0,37.2061,2.01845
642.0,37.0504,3.86745
645.0,36.5372,1.41514
648.0,36.6022,4.33897
651.0,35.3732,1.25069
654.0,35.4629,5.23287
657.0,35.2428,1.24914
660.0,35.4353,4.6905
663.0,34.6206,1.36647
666.0,34.8445,4.4364
669.0,34.5249,1.19303
672.0,35.1477,4.01273
675.0,33.8406,2.39449
678.0,34.201,4.99384
681.0,33.8355,1.82996
684.0,34.5014,4.77563
687.0,33.4919,1.54093
690.0,35.5294,0.455117
693.0,32.8618,2.98626
696.0,35.2202,0.781332
699.0,32.0388,2.17156
702.0,33.9628,0.891694
705.0,31.9448,1.59798
708.0,34.5378,1.4051
711.0,33.286,2.82964
714.0,33.8753,1.48964
717.0,33.1491,2.66844
720.0,33.107,
723.0,35.203,
726.0,32.2835,
729.0,34.8451,
732.0,30.9639,
735.0,33.9691,
738.0,30.929,
741.0,34.2864,
744.0,31.1071,
747.0,34.4716,
750.0,30.9521,
753.0,35.0716,
755.0,31.538,