Folder: cone-db/Exp-Data_Prepared-Final/FTT-White/2018 (part 3)

File: RedCedar_50kW_hor_Average.csv
Time (s),HRRPUA (kW/m2),Uc HRRPUA (kW/m2)
0.0,0.0629486,2.57109
3.0,-0.0660397,-1.88663
6.0,1.057,1.62766
9.0,0.173549,1.86705
12.0,0.641782,2.48117
15.0,-0.107112,-1.73805
18.0,0.646921,2.88989
21.0,0.243633,2.76133
24.0,0.857543,3.58196
27.0,0.195072,3.90749
30.0,10.3868,33.3672
33.0,62.6358,58.5989
36.0,125.129,82.2765
39.0,155.634,86.3782
42.0,183.02,36.5501
45.0,190.66,28.3185
48.0,183.708,49.0499
51.0,171.236,47.3105
54.0,155.753,40.2753
57.0,143.179,32.325
60.0,135.153,28.473
63.0,126.506,25.4339
66.0,122.608,24.5622
69.0,117.516,23.1663
72.0,115.115,20.7114
75.0,111.505,19.503
78.0,108.194,19.9436
81.0,104.987,18.7309
84.0,102.49,15.4955
87.0,100.417,16.8854
90.0,97.7921,15.1352
93.0,96.4541,14.9788
96.0,95.8608,13.2829
99.0,94.4622,14.3814
102.0,92.0885,12.8658
105.0,90.3345,11.469
108.0,88.616,11.5043
111.0,88.0089,11.7347
114.0,85.9615,10.7436
117.0,86.2999,11.6276
120.0,84.0389,11.7848
123.0,83.0877,9.4741
126.0,81.2107,10.1413
129.0,81.1285,10.1919
132.0,79.2059,11.5407
135.0,79.3691,9.53212
138.0,77.7059,11.3918
141.0,77.6834,9.99223
144.0,75.1992,11.6231
147.0,75.8904,10.7509
150.0,74.6996,11.0592
153.0,73.3542,9.16921
156.0,72.7325,11.3038
159.0,73.2825,8.81162
162.0,72.3247,9.69478
165.0,72.2963,9.0603
168.0,71.3588,9.36996
171.0,71.1879,8.94153
174.0,72.1071,9.22678
177.0,71.1501,9.13252
180.0,70.3202,8.69955
183.0,71.0601,9.32889
186.0,71.0694,9.17227
189.0,69.9197,9.36758
192.0,69.9839,9.35655
195.0,70.9033,10.7549
198.0,70.4377,9.41652
201.0,69.1095,10.4725
204.0,70.7785,9.5256
207.0,69.3583,10.3124
210.0,69.3274,8.83508
213.0,68.0412,10.3011
216.0,69.9988,9.40292
219.0,69.5065,10.7618
222.0,69.5166,8.85153
225.0,68.2469,9.40409
228.0,69.5322,7.56934
231.0,68.6195,8.87779
234.0,68.6399,7.93456
237.0,67.1719,8.69012
240.0,69.2592,7.01063
243.0,68.8464,8.03759
246.0,68.2053,6.5125
249.0,67.973,7.69114
252.0,69.7811,7.39675
255.0,68.7557,8.68352
258.0,68.9985,7.52955
261.0,68.384,7.91179
264.0,69.6334,7.17275
267.0,68.2572,7.99972
270.0,69.0687,7.4382
273.0,70.7812,6.748
276.0,71.3021,6.21049
279.0,71.0322,6.99418
282.0,71.1118,6.89856
285.0,72.6456,6.13014
288.0,72.2083,5.55802
291.0,72.3915,5.76017
294.0,73.0505,5.9431
297.0,75.2507,5.78327
300.0,74.0178,6.65413
303.0,75.1138,6.4146
306.0,75.9729,6.07889
309.0,78.1675,5.28714
312.0,77.9682,6.39943
315.0,79.4118,5.27848
318.0,79.4301,5.98328
321.0,80.9789,5.89273
324.0,80.5603,6.49792
327.0,81.8541,5.41018
330.0,83.2629,7.51174
333.0,84.3485,6.96375
336.0,84.0335,6.71414
339.0,87.3322,5.41541
342.0,86.7335,8.60414
345.0,88.7356,6.64117
348.0,89.5484,7.63329
351.0,91.7853,7.75891
354.0,91.5226,8.48317
357.0,92.554,7.75315
360.0,92.6082,9.21924
363.0,95.2146,7.48159
366.0,95.4016,8.43446
369.0,97.167,7.15505
372.0,98.0521,9.26668
375.0,99.8683,8.55007
378.0,100.241,8.79359
381.0,102.244,8.09434
384.0,104.006,9.68742
387.0,103.991,8.62484
390.0,104.856,8.4888
393.0,105.046,7.74202
396.0,106.634,8.75784
399.0,107.369,8.80969
402.0,108.161,8.21597
405.0,108.551,7.7825
408.0,111.202,8.8079
411.0,111.041,7.9997
414.0,111.31,7.35952
417.0,111.048,8.41381
420.0,113.895,8.62649
423.0,113.038,8.46459
426.0,113.876,8.16616
429.0,111.581,8.53378
432.0,113.042,9.36182
435.0,111.764,6.84162
438.0,111.433,8.59792
441.0,110.87,7.5418
444.0,111.632,8.70742
447.0,109.897,8.34758
450.0,109.902,12.6629
453.0,109.089,13.4189
456.0,108.492,14.3236
459.0,107.919,15.3826
462.0,107.199,16.9636
465.0,104.914,18.127
468.0,104.237,20.1034
471.0,103.977,21.8179
474.0,102.016,23.7142
477.0,99.9708,25.9271
480.0,98.6921,27.4949
483.0,98.0617,28.3556
486.0,96.8788,29.7906
489.0,94.9263,31.1569
492.0,93.6827,31.5777
495.0,93.4402,32.7371
498.0,91.2327,34.096
501.0,90.5236,35.0847
504.0,88.2632,33.2955
507.0,88.7806,33.4905
510.0,86.1493,34.9949
513.0,86.5128,34.6628
516.0,84.6191,35.4
519.0,84.0979,35.3667
522.0,80.9044,36.7882
525.0,80.4062,35.8995
528.0,78.6652,36.2511
531.0,77.2672,34.7471
534.0,75.0861,36.0292
537.0,75.2554,35.344
540.0,74.1023,35.7004
543.0,73.5723,34.9526
546.0,71.8473,37.1171
549.0,71.6917,35.7597
552.0,70.2607,36.3202
555.0,68.9339,36.2435
558.0,67.9854,38.933
561.0,66.3507,37.6629
564.0,64.6513,36.6304
567.0,63.0924,36.9999
570.0,63.0065,37.0625
573.0,62.5344,35.9412
576.0,62.3459,35.7362
579.0,60.5869,36.7732
582.0,60.1601,36.2758
585.0,59.2299,35.6845
588.0,58.8669,35.0999
591.0,56.6797,36.3326
594.0,57.1119,33.9397
597.0,55.8335,33.9053
600.0,56.035,32.9837
603.0,54.243,33.6173
606.0,53.9603,32.0298
609.0,52.8157,31.7301
612.0,52.8321,28.8036
615.0,51.5358,29.7702
618.0,54.0819,28.4574
621.0,52.6408,30.2727
624.0,52.4624,27.5308
627.0,50.6571,29.1831
630.0,50.1601,25.6548
633.0,48.4565,24.0242
636.0,47.8139,21.9815
639.0,46.1919,22.4019
642.0,45.6123,20.2286
645.0,43.9595,19.5136
648.0,44.409,17.7749
651.0,42.8802,17.249
654.0,41.7931,14.9958
657.0,41.2914,14.9709
660.0,40.7028,13.5781
663.0,39.4331,12.9581
666.0,38.8489,11.8042
669.0,38.6041,10.0792
672.0,37.5408,8.97675
675.0,36.5408,7.92153
678.0,35.8818,7.84094
681.0,36.3018,5.93716
684.0,34.8889,7.32621
687.0,34.7387,5.25343
690.0,34.614,6.44635
693.0,35.2896,4.40248
696.0,34.3311,5.97219
699.0,35.4684,3.35757
702.0,34.0719,6.08263
705.0,34.5999,3.64491
708.0,33.8119,5.78082
711.0,34.6222,3.45435
714.0,32.924,5.53281
717.0,34.2409,2.50856
720.0,32.7107,4.96955
723.0,34.9788,2.98607
726.0,33.8022,5.85814
729.0,34.8994,3.05187
732.0,33.156,4.45153
735.0,34.2487,2.63004
738.0,32.9098,4.18876
741.0,33.6095,2.5892
744.0,32.4279,4.00268
747.0,33.6403,2.73296
750.0,33.1352,3.91133
753.0,34.238,2.563
756.0,32.8308,4.09258
759.0,33.7524,2.27747
762.0,32.4166,4.2954
765.0,33.218,2.50741
768.0,32.0976,3.79197
771.0,32.5787,3.28415
774.0,32.7417,4.98427
777.0,33.4001,5.81746
780.0,32.8099,5.10032
783.0,34.0379,5.24564
786.0,34.022,3.56848
789.0,34.5537,3.74257
792.0,32.2861,1.65032
794.0,35.5333,

File: Redwood_50kW_hor_Average.csv
Time (s),HRRPUA (kW/m2),Uc HRRPUA (kW/m2)
0.0,-1.49217,-3.38451
3.0,-0.801162,-1.55368
6.0,-1.43187,-2.09125
9.0,-0.73351,-2.55321
12.0,0.228892,2.78396
15.0,-0.707055,-1.79731
18.0,0.369941,3.68927
21.0,0.0148866,1.47133
24.0,2.29038,3.38822
27.0,2.47678,2.46711
30.0,17.1231,23.4154
33.0,42.9616,73.8473
36.0,77.3917,101.322
39.0,87.6488,111.255
42.0,84.9422,97.1707
45.0,101.001,80.997
48.0,118.215,72.1784
51.0,143.151,21.2107
54.0,152.239,21.9621
57.0,145.605,26.1379
60.0,139.499,24.6715
63.0,127.747,18.4889
66.0,122.011,15.5856
69.0,113.339,12.7213
72.0,108.273,10.679
75.0,103.592,9.43781
78.0,101.71,10.4587
81.0,98.1341,9.25218
84.0,96.0222,11.0663
87.0,94.0796,7.50578
90.0,91.4546,7.96335
93.0,89.9745,6.98567
96.0,86.9424,8.28183
99.0,85.8869,7.55709
102.0,82.9507,9.81487
105.0,82.5615,8.00926
108.0,80.3411,9.00679
111.0,80.3116,6.4527
114.0,77.7818,8.40708
117.0,77.4536,5.88714
120.0,74.9136,6.49874
123.0,75.2745,4.19441
126.0,72.945,5.19361
129.0,73.3896,3.63097
132.0,71.7012,6.51074
135.0,71.501,3.39657
138.0,68.8621,5.05955
141.0,70.3849,3.84495
144.0,68.2082,5.2093
147.0,69.0945,4.72122
150.0,67.4864,6.35889
153.0,67.9962,5.17875
156.0,65.613,5.46384
159.0,66.3622,5.02081
162.0,64.4133,3.33681
165.0,65.5465,5.46927
168.0,63.9965,4.28453
171.0,64.4632,4.05453
174.0,63.7039,3.05511
177.0,62.5529,3.92067
180.0,61.9857,4.54146
183.0,62.917,4.62592
186.0,63.6102,4.09908
189.0,62.7495,4.63722
192.0,63.1441,5.48984
195.0,62.4824,3.95497
198.0,62.3882,6.74769
201.0,60.6853,3.42561
204.0,60.4886,7.33287
207.0,59.3839,5.56805
210.0,59.7899,9.06202
213.0,58.9865,5.4647
216.0,59.355,8.49826
219.0,57.9964,6.7981
222.0,59.5398,10.1368
225.0,57.2441,7.2102
228.0,57.7054,10.4963
231.0,57.1473,8.01643
234.0,58.7182,11.2256
237.0,56.6362,9.43578
240.0,58.0948,11.0103
243.0,57.5,8.35702
246.0,57.6784,10.5442
249.0,56.7559,8.22995
252.0,57.7317,8.72528
255.0,56.1998,8.70694
258.0,57.1071,8.49501
261.0,55.9643,7.92453
264.0,57.5087,8.10158
267.0,55.9619,8.64049
270.0,56.3778,8.22912
273.0,55.6897,9.23535
276.0,56.1228,8.74851
279.0,55.6513,10.3414
282.0,55.5806,7.15281
285.0,55.3295,8.65411
288.0,55.3946,7.2902
291.0,55.7899,9.44495
294.0,55.4863,6.39129
297.0,56.1339,9.59156
300.0,56.5316,7.4689
303.0,57.0216,9.97947
306.0,55.4696,5.83285
309.0,56.2341,9.17147
312.0,55.5461,6.28321
315.0,56.8933,10.5081
318.0,55.1331,6.87857
321.0,56.6147,8.77385
324.0,55.0905,6.84879
327.0,55.7689,8.69579
330.0,54.8515,5.72641
333.0,55.5273,7.79433
336.0,54.4535,6.85228
339.0,55.7166,8.4919
342.0,54.5376,6.15913
345.0,55.8237,7.40394
348.0,55.419,6.12914
351.0,56.7343,7.00888
354.0,56.5679,5.14099
357.0,57.1209,6.41427
360.0,56.5274,6.05367
363.0,57.1165,6.5024
366.0,57.4747,6.00614
369.0,58.4714,6.44569
372.0,58.2308,7.06379
375.0,58.6489,6.97086
378.0,60.1754,7.38149
381.0,60.2883,7.20549
384.0,59.9554,8.96872
387.0,61.2406,7.69893
390.0,63.1661,8.59975
393.0,62.9069,6.79068
396.0,64.4165,8.94137
399.0,64.4608,9.00609
402.0,65.933,11.0581
405.0,64.79,8.41482
408.0,66.8115,10.8289
411.0,66.8681,8.83295
414.0,69.5666,11.8425
417.0,68.7494,11.0194
420.0,71.2175,14.4657
423.0,72.3292,11.213
426.0,74.0097,13.543
429.0,73.5346,13.1177
432.0,75.4887,16.6546
435.0,74.4644,14.9286
438.0,76.8288,18.9138
441.0,75.9451,15.679
444.0,78.5733,19.2612
447.0,78.3927,16.7982
450.0,80.1118,19.5804
453.0,79.9841,19.2099
456.0,81.6149,20.9343
459.0,81.2559,21.4237
462.0,82.126,22.8553
465.0,82.6792,22.5316
468.0,83.8355,24.6504
471.0,83.7153,25.9647
474.0,83.8726,26.9307
477.0,85.503,27.2234
480.0,87.2497,26.9891
483.0,89.4135,32.2724
486.0,89.3988,33.9332
489.0,90.5196,35.5076
492.0,91.7729,36.9076
495.0,93.6963,40.5717
498.0,93.259,40.9622
501.0,96.9259,43.8199
504.0,97.1853,43.1335
507.0,101.151,47.7119
510.0,100.412,47.2715
513.0,101.18,48.4454
516.0,103.156,49.991
519.0,104.872,54.8102
522.0,103.183,51.8125
525.0,104.405,53.6771
528.0,104.118,52.361
531.0,104.208,52.7951
534.0,103.581,50.8082
537.0,104.118,53.3692
540.0,104.767,51.5942
543.0,107.341,53.9462
546.0,105.123,52.5132
549.0,106.559,53.8983
552.0,104.168,51.7721
555.0,103.18,51.5808
558.0,100.25,48.614
561.0,100.034,48.4872
564.0,98.2133,49.6553
567.0,95.962,47.2334
570.0,93.3989,46.8494
573.0,91.5273,43.8317
576.0,91.2168,45.1582
579.0,87.5417,40.5477
582.0,83.5838,41.6679
585.0,80.6464,36.907
588.0,79.335,39.9508
591.0,76.233,34.0732
594.0,76.1395,36.3592
597.0,73.8134,31.7332
600.0,73.6544,35.4769
603.0,72.1113,30.826
606.0,71.5187,35.071
609.0,69.2945,31.7867
612.0,69.5806,34.9146
615.0,67.128,31.6075
618.0,67.7363,34.8597
621.0,65.3457,32.6046
624.0,65.3849,34.3744
627.0,62.7535,31.2589
630.0,63.3508,32.0212
633.0,60.8885,30.3291
636.0,60.7632,31.4024
639.0,58.0172,30.3722
642.0,57.9858,30.3273
645.0,58.13,30.6143
648.0,59.1721,29.8
651.0,56.7922,30.8849
654.0,54.8958,28.5938
657.0,53.2651,28.0846
660.0,52.7122,25.0047
663.0,51.4063,26.2589
666.0,50.0824,23.3601
669.0,49.8848,25.843
672.0,47.9744,21.9199
675.0,47.878,25.1198
678.0,46.7684,20.4113
681.0,45.6141,23.3091
684.0,42.6186,18.4489
687.0,41.4778,21.8436
690.0,39.541,16.8571
693.0,39.8888,20.7439
696.0,37.6821,15.4349
699.0,36.9376,19.3898
702.0,34.8457,15.7553
705.0,35.3548,19.23
708.0,34.3424,15.7398
711.0,35.5952,19.7986
714.0,32.8833,15.9964
717.0,33.3664,18.1571
720.0,32.2593,14.9109
723.0,33.1,18.0478
726.0,31.416,16.0994
729.0,31.4174,17.5787
732.0,29.9917,16.3271
735.0,31.2708,18.0624
738.0,30.8677,16.6753
741.0,31.4676,17.1703
744.0,30.6418,16.5035
747.0,30.9093,15.7163
750.0,31.2983,15.7214
753.0,31.4128,15.5649
756.0,30.7672,16.5554
759.0,31.1115,14.6127
762.0,30.0384,16.7347
765.0,29.56,14.1686
768.0,28.9828,17.045
771.0,28.3182,13.823
774.0,29.0643,17.0639
777.0,28.1095,13.8707
780.0,28.3795,17.08
783.0,27.8246,13.0049
786.0,28.6016,16.8438
789.0,27.5424,13.28
792.0,28.3649,18.0802
795.0,27.2744,14.2013
798.0,27.6501,17.8114
801.0,27.6854,15.4503
804.0,28.6681,18.7928
807.0,34.6639,2.75558
810.0,36.9062,2.56567
813.0,34.9883,1.66464
816.0,37.2111,3.44534
819.0,31.4318,
822.0,34.289,
825.0,34.7345,
828.0,35.4352,
831.0,35.0067,
834.0,34.5247,
837.0,34.9041,
840.0,32.9644,
843.0,34.5351,
846.0,33.4064,
849.0,34.5255,
852.0,31.8298,
855.0,34.5775,
858.0,31.7088,
861.0,34.0334,