Folder: cone-db/Exp-Data_Prepared-Final/FTT-White/2018 (part 2)

File: Ipe_50kW_hor_Average.csv
Time (s),HRRPUA (kW/m2),Uc HRRPUA (kW/m2)
0.0,-0.0116926,-1.75581
4.0,0.928878,3.66958
8.0,3.35032,9.86169
12.0,4.93843,17.2544
16.0,8.82201,30.8179
20.0,15.5639,44.8538
24.0,18.3365,52.1514
28.0,20.8829,59.7628
32.0,32.6662,63.1854
36.0,46.7591,61.6857
40.0,62.0512,65.205
44.0,84.6758,73.6812
48.0,101.376,79.7407
52.0,117.746,85.4229
56.0,133.018,93.3207
60.0,141.633,95.6814
64.0,147.936,86.4032
68.0,168.409,68.3659
72.0,186.048,46.0504
76.0,200.284,14.0528
80.0,209.091,22.603
84.0,208.177,29.6917
88.0,200.816,28.4628
92.0,192.396,22.7973
96.0,187.553,21.2179
100.0,184.296,21.4324
104.0,176.698,16.4215
108.0,171.68,14.6968
112.0,169.547,15.8156
116.0,165.474,11.1156
120.0,166.083,9.99875
124.0,161.371,12.2453
128.0,158.006,9.71254
132.0,155.352,8.74986
136.0,154.869,10.393
140.0,150.73,10.074
144.0,148.44,9.78079
148.0,147.542,8.76853
152.0,147.475,9.3387
156.0,146.122,9.00041
160.0,146.521,10.8939
164.0,144.67,10.1268
168.0,144.143,9.27627
172.0,144.588,9.25789
176.0,143.722,9.01873
180.0,142.192,7.51028
184.0,142.62,7.21747
188.0,144.433,7.95882
192.0,144.259,6.79433
196.0,144.26,7.11609
200.0,144.367,6.11212
204.0,144.16,6.9322
208.0,145.521,7.77032
212.0,146.487,8.3248
216.0,144.505,8.04523
220.0,144.928,8.86452
224.0,145.572,8.94958
228.0,145.011,8.63861
232.0,145.899,9.12399
236.0,146.613,8.69361
240.0,147.906,10.8047
244.0,145.837,9.3566
248.0,147.482,9.64786
252.0,146.899,7.89625
256.0,145.314,6.60518
260.0,146.681,7.20683
264.0,146.57,7.49204
268.0,146.516,5.99777
272.0,147.181,6.21484
276.0,147.782,8.48541
280.0,146.443,4.16755
284.0,145.792,4.64897
288.0,147.489,6.72044
292.0,145.938,6.02337
296.0,145.21,6.36834
300.0,146.541,8.50703
304.0,144.888,6.99445
308.0,143.894,8.16671
312.0,143.203,10.323
316.0,144.283,12.8105
320.0,142.549,10.5963
324.0,140.689,12.4105
328.0,140.684,15.643
332.0,139.333,11.5693
336.0,140.109,13.583
340.0,140.53,13.8846
344.0,139.782,12.8241
348.0,140.694,11.2831
352.0,140.675,13.3502
356.0,140.149,12.988
360.0,140.499,13.4829
364.0,142.199,13.7866
368.0,142.001,12.734
372.0,140.698,9.65413
376.0,143.542,10.7539
380.0,145.86,10.5008
384.0,146.489,10.7326
388.0,146.558,11.8101
392.0,148.581,11.8395
396.0,152.086,8.21068
400.0,154.044,9.89685
404.0,155.553,8.95038
408.0,156.936,7.65162
412.0,158.151,9.79543
416.0,162.303,11.3994
420.0,163.864,9.73174
424.0,165.02,11.5466
428.0,166.161,11.2927
432.0,166.3,11.723
436.0,171.38,14.3398
440.0,173.675,17.4403
444.0,177.247,17.1358
448.0,179.187,20.7697
452.0,185.83,22.9529
456.0,189.981,23.5337
460.0,195.114,27.1279
464.0,193.968,31.8344
468.0,200.871,33.654
472.0,206.672,37.7531
476.0,211.625,42.1317
480.0,217.435,46.9379
484.0,225.34,49.0068
488.0,232.889,55.1165
492.0,242.937,59.9709
496.0,250.777,65.982
500.0,258.63,70.102
504.0,268.664,74.3995
508.0,271.073,72.6599
512.0,278.451,76.114
516.0,286.848,80.3715
520.0,295.38,78.4117
524.0,304.396,80.3574
528.0,306.083,76.4956
532.0,314.195,77.4416
536.0,319.884,74.4772
540.0,323.215,74.4367
544.0,329.162,69.772
548.0,340.555,66.5792
552.0,344.522,64.7557
556.0,348.226,60.6811
560.0,352.374,59.2742
564.0,359.697,53.9655
568.0,363.584,53.4138
572.0,366.077,45.4219
576.0,366.496,40.1003
580.0,366.812,39.7365
584.0,365.579,37.374
588.0,368.223,38.6808
592.0,359.866,37.1917
596.0,350.974,35.9334
600.0,337.199,38.2562
604.0,332.133,40.8465
608.0,322.198,49.0637
612.0,312.437,56.9098
616.0,302.999,67.8229
620.0,293.57,78.3084
624.0,282.178,83.8141
628.0,276.02,92.2807
632.0,265.444,98.4876
636.0,257.071,105.384
640.0,248.249,111.474
644.0,240.762,117.069
648.0,233.052,121.384
652.0,221.413,122.68
656.0,215.505,121.836
660.0,205.681,121.249
664.0,196.467,120.104
668.0,186.673,116.147
672.0,176.847,114.022
676.0,166.823,110.441
680.0,158.592,108.146
684.0,150.047,106.822
688.0,140.455,102.4
692.0,131.019,95.358
696.0,122.572,90.7775
700.0,114.986,86.5459
704.0,108.693,78.2176
708.0,103.6,73.0031
712.0,98.5541,70.1334
716.0,94.3046,66.0206
720.0,90.3013,58.7494
724.0,86.0694,53.5467
728.0,81.9899,46.9213
732.0,78.4916,38.8323
736.0,74.9679,33.4717
740.0,72.6327,28.2121
744.0,69.5261,23.48
748.0,68.2807,21.0747
752.0,67.0626,18.8653
756.0,64.5116,14.0286
760.0,63.5453,12.3054
764.0,62.4893,11.9928
768.0,61.0948,9.27877
772.0,60.6245,7.77045
776.0,59.9183,8.51958
780.0,59.2803,6.94287
784.0,58.8873,5.75612
788.0,58.7949,7.6868
792.0,58.0565,7.27824
796.0,58.3001,6.65312
800.0,58.0855,7.25486
804.0,57.4024,7.28909
808.0,58.0412,5.47962
812.0,57.2396,6.6634
816.0,56.6467,6.98125
820.0,57.0336,5.58743
824.0,57.2495,5.77339
828.0,56.8776,5.74536
832.0,56.3034,5.41422
836.0,55.1727,6.09467
840.0,56.091,6.01248
844.0,55.4352,4.84358
848.0,55.1153,5.36892
852.0,55.3379,5.23373
856.0,54.1529,4.48455
860.0,54.122,5.27919
864.0,55.405,5.86022
868.0,54.5563,4.32404
872.0,54.3377,4.50841
876.0,54.4325,5.18549
880.0,54.9209,4.8811
884.0,53.3225,5.36232
888.0,55.6351,3.73401
892.0,54.559,3.70014
896.0,50.0721,5.00721
900.0,52.2435,4.96671
904.0,54.3403,3.44166
908.0,53.0067,2.61793
912.0,55.6347,4.99277
916.0,52.4212,1.73428
920.0,50.4739,2.98098
924.0,54.2283,2.4702
928.0,54.2442,2.304
932.0,52.5263,3.14534
936.0,52.782,
940.0,53.4913,
944.0,48.6748,
948.0,49.2427,
950.0,49.5852,

File: Pine_50kW_hor_Average.csv
Time (s),HRRPUA (kW/m2),Uc HRRPUA (kW/m2)
0.0,-0.756465,-1.45603
3.0,0.395684,1.63331
6.0,-0.450167,-1.50154
9.0,0.296446,1.53355
12.0,-0.22501,-1.94526
15.0,0.248939,1.99053
18.0,0.218459,1.40469
21.0,0.109929,2.79533
24.0,1.6116,2.79876
27.0,0.556844,4.55275
30.0,1.46864,4.72542
33.0,24.3978,58.2675
36.0,54.0096,97.7756
39.0,105.951,94.4419
42.0,175.373,73.0005
45.0,204.569,24.6923
48.0,195.412,26.4156
51.0,169.856,23.9721
54.0,148.991,17.6676
57.0,131.082,11.6886
60.0,122.647,9.44784
63.0,112.866,7.28723
66.0,108.038,6.75924
69.0,101.988,5.71569
72.0,101.004,7.41705
75.0,95.9495,7.42813
78.0,95.1744,7.2403
81.0,91.6693,6.69786
84.0,90.7827,7.10616
87.0,87.1046,7.36136
90.0,87.7655,8.30623
93.0,84.0733,8.2936
96.0,83.9527,8.70546
99.0,82.3381,8.1235
102.0,81.4788,8.21905
105.0,79.8997,8.11829
108.0,78.9788,7.38595
111.0,77.6954,8.43955
114.0,76.9646,7.28658
117.0,76.5932,7.25232
120.0,75.2927,6.35246
123.0,75.4394,7.2103
126.0,74.1727,6.53968
129.0,74.1407,6.24927
132.0,72.2556,6.60828
135.0,73.9158,9.19573
138.0,71.2839,7.67713
141.0,73.3794,10.1287
144.0,70.0997,8.36021
147.0,72.6734,10.3778
150.0,69.4605,9.632
153.0,71.6359,10.4095
156.0,68.3081,9.10389
159.0,70.2296,9.46484
162.0,67.7063,8.6201
165.0,70.0477,9.23252
168.0,65.7909,7.16805
171.0,67.5737,8.55285
174.0,66.1538,7.90887
177.0,67.4626,8.07929
180.0,66.045,8.61724
183.0,68.3201,9.61488
186.0,66.435,8.58652
189.0,67.2034,8.89019
192.0,67.108,9.01609
195.0,66.7171,9.03757
198.0,66.0788,8.15601
201.0,68.0185,9.03236
204.0,67.1424,9.28433
207.0,66.5216,8.29985
210.0,66.9829,8.33847
213.0,67.5859,8.65963
216.0,68.4991,7.91218
219.0,67.1865,7.66995
222.0,68.3779,8.23576
225.0,67.3414,8.03249
228.0,67.9672,8.57453
231.0,66.5861,7.81553
234.0,68.8302,9.0557
237.0,66.4666,9.30115
240.0,70.1797,9.42607
243.0,68.5464,9.18839
246.0,70.984,10.808
249.0,67.4975,10.5756
252.0,70.5577,10.5209
255.0,66.2347,8.91888
258.0,69.2082,10.79
261.0,67.2031,10.781
264.0,70.0695,12.5775
267.0,68.1726,12.9556
270.0,71.008,14.5627
273.0,68.7991,14.72
276.0,71.2835,15.9561
279.0,69.2205,15.7446
282.0,70.8691,16.2596
285.0,70.3319,17.5199
288.0,72.2555,16.572
291.0,71.4254,17.4487
294.0,71.8796,18.0403
297.0,72.5431,20.1049
300.0,73.2868,19.4669
303.0,73.9219,20.7825
306.0,73.8293,19.409
309.0,75.4232,21.3995
312.0,75.0151,21.2523
315.0,76.7022,23.1558
318.0,76.6838,23.8744
321.0,79.2439,26.2514
324.0,78.2693,26.6467
327.0,82.2124,28.0429
330.0,80.3246,29.029
333.0,83.3684,29.8296
336.0,81.3427,28.5491
339.0,85.1544,31.543
342.0,83.8448,29.9002
345.0,87.8894,33.1508
348.0,85.7708,32.707
351.0,89.0684,32.809
354.0,87.559,32.2021
357.0,91.8604,33.2083
360.0,90.4118,31.9646
363.0,93.9411,31.8699
366.0,93.085,34.4177
369.0,96.4927,33.9708
372.0,95.4991,32.4051
375.0,97.8072,31.1621
378.0,97.2418,31.5436
381.0,99.8572,31.5562
384.0,99.8362,31.5634
387.0,102.515,30.4955
390.0,103.475,30.1075
393.0,105.35,27.9057
396.0,106.833,27.2283
399.0,107.695,25.2361
402.0,108.45,24.9389
405.0,110.534,22.5113
408.0,111.927,22.2073
411.0,112.32,19.0512
414.0,114.641,19.6315
417.0,114.562,15.8588
420.0,118.218,16.322
423.0,117.032,14.1854
426.0,120.446,13.7342
429.0,118.344,13.2912
432.0,121.009,11.2829
435.0,119.436,12.6794
438.0,122.515,11.6979
441.0,121.148,12.0818
444.0,125.694,13.913
447.0,124.012,13.4958
450.0,125.427,13.3533
453.0,124.73,16.4719
456.0,125.032,14.6946
459.0,123.819,17.3425
462.0,126.963,17.2589
465.0,122.737,19.3471
468.0,125.129,20.3659
471.0,123.805,21.6202
474.0,124.738,23.1607
477.0,123.397,23.609
480.0,123.665,25.8938
483.0,121.024,25.3723
486.0,121.38,27.6748
489.0,120.996,27.7444
492.0,118.871,28.8466
495.0,118.127,27.7339
498.0,116.503,28.5755
501.0,117.56,28.5817
504.0,114.527,31.0606
507.0,114.778,29.7678
510.0,112.679,31.9592
513.0,112.557,31.2433
516.0,108.787,32.3735
519.0,108.321,30.0134
522.0,106.198,32.0167
525.0,106.819,30.9186
528.0,102.486,32.2948
531.0,104.109,30.9719
534.0,99.9475,30.8024
537.0,99.635,29.2841
540.0,95.2709,30.1101
543.0,95.2743,29.0516
546.0,91.4501,29.1651
549.0,91.8548,28.5749
552.0,87.0409,27.8676
555.0,86.7612,27.6032
558.0,82.1806,26.533
561.0,83.0493,27.0245
564.0,79.0052,26.8019
567.0,79.1466,27.3522
570.0,75.8922,25.834
573.0,75.6706,26.8552
576.0,72.7717,24.9618
579.0,71.4331,25.3042
582.0,69.9908,22.749
585.0,68.4951,22.6245
588.0,66.5835,19.9117
591.0,64.0983,21.1517
594.0,63.2472,18.3336
597.0,60.3753,18.7026
600.0,59.9591,14.9411
603.0,57.3034,16.7742
606.0,57.3131,14.2252
609.0,54.2812,15.0474
612.0,54.9424,11.9163
615.0,52.3652,12.7298
618.0,53.0012,9.61473
621.0,50.1424,11.2409
624.0,51.5809,8.9186
627.0,47.8844,10.4172
630.0,49.5572,8.40543
633.0,46.4118,8.66945
636.0,48.194,7.42024
639.0,45.0358,8.11989
642.0,47.5871,5.5927
645.0,43.4144,5.47925
648.0,44.6649,4.87493
651.0,41.0494,4.53756
654.0,42.356,4.97194
657.0,40.2625,3.71747
660.0,41.8338,4.68885
663.0,38.9519,2.95902
666.0,39.9046,4.6234
669.0,38.5509,3.36483
672.0,37.9942,3.72682
675.0,36.4369,2.04203
678.0,36.4492,2.95436
681.0,36.497,2.54611
684.0,35.6025,3.3703
687.0,35.722,1.43494
690.0,34.8793,1.98259
693.0,35.4868,1.82232
696.0,34.2633,2.44043
699.0,34.8433,1.95902
702.0,33.3602,2.22172
705.0,35.0751,1.9564
708.0,33.1969,1.38544
711.0,35.0086,3.28397
714.0,32.7072,1.81467
717.0,34.6793,4.16097
720.0,32.5506,1.21232
723.0,35.2185,3.65835
726.0,32.9482,0.894967
729.0,35.4119,3.24706
732.0,32.5382,1.49562
735.0,34.3958,3.04981
738.0,31.5363,2.07658
741.0,34.2413,3.21521
744.0,32.4608,1.51203
747.0,34.2785,3.801
750.0,32.5079,1.33822
753.0,33.7795,3.6137
756.0,31.7393,1.45274
759.0,32.9496,3.11997
762.0,32.0833,1.73456
765.0,32.8566,2.33473
768.0,31.8996,1.73557
771.0,32.2395,2.85646
774.0,31.8756,2.59863
777.0,33.1575,2.7616
780.0,32.2871,1.70903
783.0,32.8389,2.55519
786.0,31.8404,1.57416
789.0,31.9657,1.42267
792.0,31.2881,1.46272
795.0,29.9301,2.34108
798.0,32.467,1.8911
801.0,30.7759,3.54482
804.0,32.5606,0.391099
806.0,31.9084,

File: RedCedar_25kW_vert_Average.csv
Time (s),HRRPUA (kW/m2),Uc HRRPUA (kW/m2)
0.0,0.525447,3.81585
5.0,2.0625,1.61902
10.0,1.82995,3.05017
15.0,0.550936,1.28448
20.0,0.0754529,1.58568
25.0,-1.37809,-1.6048
30.0,-1.34291,-2.35662
35.0,0.117725,2.54433
40.0,0.439842,1.82796
45.0,0.0154989,1.52642
50.0,-0.334565,-2.02697
55.0,-2.62874,-0.301992
60.0,-3.07993,-1.33478
65.0,-2.00801,-2.16317
70.0,-0.298384,-2.30536
75.0,1.15977,1.35897
80.0,1.89068,1.50606
85.0,0.601649,2.67414
90.0,0.111575,1.71518
95.0,-0.704944,-0.690998
100.0,-0.0317562,-1.74344
105.0,1.73908,2.41949
110.0,2.52423,1.49608
115.0,2.24284,1.01324
120.0,1.59049,1.80369
125.0,0.027879,0.541235
130.0,-0.495352,-0.362825
135.0,-0.854474,-1.09505
140.0,0.145985,2.24
145.0,1.96413,0.249508
150.0,2.42231,2.22198
155.0,2.21472,2.92736
160.0,1.52713,3.15806
165.0,0.472255,1.82604
170.0,-1.17322,-1.21564
175.0,0.988168,0.837576
180.0,1.87799,1.3059
185.0,4.02942,1.28616
190.0,2.89163,2.90878
195.0,1.9961,2.04867
200.0,0.752492,1.63716
205.0,0.495295,0.246276
210.0,1.80203,1.43522
215.0,4.44535,0.320563
220.0,5.93917,1.5832
225.0,5.48412,3.12437
230.0,4.65197,2.7199
235.0,4.15771,1.69702
240.0,4.64288,1.1541
245.0,6.17092,1.19256
250.0,7.17354,1.00113
255.0,8.90503,2.60171
260.0,8.41381,4.27179
265.0,8.10594,5.14974
270.0,6.70259,5.00944
275.0,8.69246,4.22774
280.0,10.3584,2.29096
285.0,12.2893,2.01352
290.0,14.5362,4.01902
295.0,15.0438,4.80435
300.0,13.5302,4.70209
305.0,12.3357,2.52074
310.0,11.7525,1.60571
315.0,13.6214,1.70317
320.0,15.4053,1.38001
325.0,15.6686,1.44242
330.0,16.6264,3.10558
335.0,16.3968,4.07032
340.0,15.12,2.89256
345.0,14.5659,2.37404
350.0,15.2632,1.38806
355.0,16.2322,1.98963
360.0,17.2267,0.387797
365.0,18.7513,2.23694
370.0,18.2906,1.43988
375.0,16.3466,1.57872
380.0,16.2985,0.535595
385.0,16.8195,1.05855
390.0,18.6634,2.51553
395.0,20.5543,1.47172
400.0,19.6455,2.49213
405.0,19.0919,2.48601
410.0,19.262,1.23399
415.0,19.2344,0.636754
420.0,19.6062,1.0662
425.0,20.3696,1.20213
430.0,20.9451,0.667739
435.0,21.9092,1.64028
440.0,21.742,1.58755
445.0,19.5716,1.78133
450.0,18.9474,0.460896
455.0,19.3118,1.64588
460.0,19.9567,2.84339
465.0,21.394,1.68447
470.0,22.6659,0.904304
475.0,21.131,0.712728
480.0,18.8037,1.90145
485.0,17.6982,3.42489
490.0,19.0859,3.54123
495.0,21.0398,4.26594
500.0,21.8108,3.44676
505.0,23.1406,1.61956
510.0,21.7541,2.30797
515.0,20.6218,1.9238
520.0,19.337,2.92485
525.0,20.4215,3.36675
530.0,20.9393,3.98362
535.0,21.0978,2.8152
540.0,22.0856,1.51807
545.0,22.2274,1.10153
550.0,21.3199,3.21379
555.0,19.8209,4.2298
560.0,20.436,6.46412
565.0,22.8939,9.59406
570.0,32.8317,
575.0,26.3776,
580.0,25.901,
585.0,27.3964,
590.0,31.0334,
595.0,34.105,
600.0,28.1909,
605.0,30.7752,
610.0,32.6245,
615.0,33.909,
620.0,25.2403,
625.0,25.8986,
630.0,30.6918,
635.0,37.4346,
640.0,36.7054,
645.0,30.5029,
650.0,31.9569,
655.0,34.149,
660.0,38.3927,
665.0,29.1806,
670.0,30.5336,
675.0,35.4894,
680.0,35.9847,
685.0,31.969,
690.0,29.9301,
695.0,31.0873,
700.0,34.2384,
705.0,39.1283,
710.0,33.4432,
715.0,33.1523,
720.0,32.5849,
725.0,33.6148,
730.0,29.594,
735.0,28.5703,
740.0,33.2887,
745.0,37.171,
750.0,34.8341,
755.0,30.2503,
760.0,28.1235,
765.0,30.0842,
770.0,31.4317,
775.0,32.2792,
780.0,35.4916,
785.0,36.2803,
790.0,33.0625,
795.0,31.8785,
800.0,30.3685,
805.0,30.189,
810.0,31.5619,
815.0,32.7543,
820.0,34.376,
825.0,32.0675,
830.0,30.2117,
835.0,29.4136,
840.0,29.5064,
845.0,31.1776,
850.0,31.3126,
855.0,30.4056,
860.0,27.6977,
865.0,27.9547,
870.0,28.3067,
875.0,28.5022,
880.0,28.6619,
885.0,32.1867,
890.0,33.1913,
895.0,29.057,
900.0,25.8352,
905.0,27.412,
910.0,28.9317,
915.0,28.5133,
920.0,30.6271,
925.0,31.5793,
930.0,32.5973,
935.0,29.7493,
940.0,29.4317,
945.0,28.5335,
950.0,31.6019,
955.0,32.1669,
960.0,32.8834,
965.0,30.4624,
970.0,30.0692,
975.0,31.1574,
980.0,30.1111,
985.0,31.4495,
990.0,32.9198,
995.0,34.5409,
1000.0,31.7015,
1005.0,29.1227,
1010.0,29.2391,
1015.0,29.0245,
1020.0,32.4804,
1025.0,32.4981,
1030.0,34.1427,
1035.0,31.5827,
1040.0,30.6252,
1045.0,29.6393,
1050.0,29.6036,
1055.0,30.1171,
1060.0,31.7475,
1065.0,32.5376,
1070.0,32.1006,
1075.0,30.7983,
1080.0,28.2558,
1085.0,28.8508,
1090.0,29.5763,
1095.0,31.4403,
1100.0,33.7569,
1105.0,34.1847,
1110.0,30.5442,
1115.0,28.8176,
1120.0,29.1811,
1125.0,31.2989,
1130.0,33.403,
1135.0,34.0639,
1140.0,32.6629,
1145.0,30.7073,
1150.0,31.3922,
1155.0,30.243,
1160.0,31.1922,
1165.0,32.2073,
1170.0,34.6061,
1175.0,32.7604,
1180.0,30.701,
1185.0,29.495,
1190.0,29.5976,
1195.0,30.4472,
1200.0,32.8614,

File: RedCedar_30kW_vert_Average.csv
Time (s),HRRPUA (kW/m2),Uc HRRPUA (kW/m2)
0.0,0.297648,1.13994
6.0,2.58666,3.75632
12.0,2.53042,2.47339
18.0,1.76073,2.11904
24.0,1.35537,2.75275
30.0,0.675554,3.25464
36.0,-0.0279871,-2.62024
42.0,0.140886,2.03154
48.0,0.0856639,1.84235
54.0,0.791877,0.646159
60.0,1.26382,1.56163
66.0,0.653621,1.79423
72.0,-0.957547,-1.28894
78.0,-0.155778,-2.76349
84.0,0.483903,2.51961
90.0,0.403971,2.581
96.0,0.377773,1.40348
102.0,-0.126104,-2.6021
108.0,1.34969,2.92055
114.0,1.25626,2.73188
120.0,1.13998,2.90493
126.0,1.00263,2.87153
132.0,0.992292,2.98956
138.0,2.48418,3.41018
144.0,2.60655,3.06717
150.0,3.55149,0.589226
156.0,4.20347,0.322383
162.0,4.73694,2.60462
168.0,3.88555,2.22379
174.0,4.79048,2.1016
180.0,6.20009,2.51127
186.0,6.95569,0.769615
192.0,6.96481,0.533126
198.0,7.92685,2.13493
204.0,8.71515,2.27396
210.0,9.55282,2.6439
216.0,10.5946,2.48902
222.0,11.2733,2.89329
228.0,11.2699,2.81494
234.0,11.7763,1.8494
240.0,12.0869,2.84302
246.0,12.6114,2.67904
252.0,12.093,1.04146
258.0,13.1046,1.31015
264.0,13.8124,1.19491
270.0,14.2164,1.41215
276.0,14.7596,0.886385
282.0,15.9139,2.73591
288.0,16.7116,3.05541
294.0,16.1021,2.67199
300.0,17.5419,3.04311
306.0,18.4593,3.49039
312.0,18.2032,4.18284
318.0,18.03,4.91231
324.0,17.7095,5.08652
330.0,17.9019,4.04002
336.0,17.8481,4.09258
342.0,17.7387,3.05338
348.0,18.3237,3.96398
354.0,19.1879,3.10725
360.0,19.4401,2.32109
366.0,19.0564,1.38173
372.0,18.7062,0.74516
378.0,18.212,0.659495
384.0,19.9528,0.913898
390.0,19.7735,0.370498
396.0,21.1126,0.236214
402.0,20.2955,1.19404
408.0,21.1941,1.65635
414.0,21.6557,0.533676
420.0,21.1137,1.14232
426.0,20.4841,0.539551
432.0,20.7925,1.87735
438.0,21.1736,1.73034
444.0,20.8806,1.14253
450.0,21.199,0.76893
456.0,20.639,1.56411
462.0,20.7022,2.10566
468.0,20.8821,1.68496
474.0,19.2928,3.22082
480.0,19.0221,3.34985
486.0,18.9011,3.41929
492.0,19.5172,4.5022
498.0,20.5327,3.718
504.0,19.682,2.81865
510.0,20.4626,3.47631
516.0,19.5926,3.54628
522.0,19.3964,3.04762
528.0,19.1715,1.76004
534.0,19.8697,1.64032
540.0,19.0722,2.13536
546.0,18.2433,0.794959
552.0,19.4875,1.79616
558.0,19.8819,2.08134
564.0,19.6894,1.45334
570.0,19.4882,0.211672
576.0,19.3758,0.385581
582.0,20.3719,1.69271
588.0,20.6425,1.53071
594.0,21.3263,1.92314
600.0,22.4157,2.17351
606.0,21.7796,0.9804
612.0,20.9704,2.15604
618.0,21.6449,2.52353
624.0,21.034,2.09196
630.0,21.2418,2.20744
636.0,20.565,1.4687
642.0,19.7793,0.313303
648.0,20.1983,0.846087
654.0,20.0553,0.928248
660.0,20.847,1.98548
666.0,20.7498,1.54388
672.0,20.1131,3.0873
678.0,19.6711,3.72405
684.0,18.8958,3.0602
690.0,20.6798,1.99952
696.0,20.566,2.77626
702.0,20.5785,3.39068
708.0,20.1985,3.12515
714.0,20.0318,2.31102
720.0,19.6045,2.81464
726.0,20.2264,3.07408
732.0,20.4968,2.01421
738.0,22.8599,1.75013
744.0,22.1768,0.830028
750.0,22.7141,0.822356
756.0,22.6084,1.20612
762.0,22.0294,0.685757
768.0,21.8827,0.934453
774.0,22.3385,1.90827
780.0,22.8057,1.42444
786.0,22.776,2.39384
792.0,23.4816,2.62223
798.0,24.3394,1.73503
804.0,24.0084,3.41881
810.0,24.3272,4.85633
816.0,23.7536,4.77757
822.0,23.4799,3.092
828.0,23.7272,3.86151
834.0,24.1007,3.07669
840.0,23.6024,4.51934
846.0,21.7981,4.57041
852.0,22.4554,4.37889
858.0,22.0776,3.33154
864.0,22.6504,3.17606
870.0,24.5147,2.65823
876.0,24.3619,2.49252
882.0,24.7968,2.44687
888.0,25.5767,4.63572
894.0,25.6328,3.43082
900.0,25.0873,4.75892
906.0,27.239,5.3226
912.0,26.4356,4.05358
918.0,26.2725,4.28553
924.0,25.774,4.56916
930.0,26.7544,5.41479
936.0,26.9004,4.35826
942.0,27.313,5.53286
948.0,28.3148,6.95347
954.0,27.1507,7.03655
960.0,27.8526,8.44849
966.0,28.6395,9.39461
972.0,29.5993,12.055
978.0,29.6789,11.6563
984.0,31.1267,13.1249
990.0,24.2634,4.60263
996.0,25.272,4.60421
1002.0,24.334,4.27092
1008.0,23.3011,4.83639
1014.0,24.6781,2.57004
1020.0,24.6325,1.91973
1026.0,26.9636,0.985929
1032.0,27.1407,1.69978
1038.0,25.8635,1.25911
1044.0,25.4628,0.0201207
1050.0,26.588,0.338493
1056.0,27.8629,0.733182
1062.0,28.4829,0.623881
1068.0,27.1086,1.52493
1074.0,28.2098,4.24356
1080.0,27.1846,3.15832
1086.0,28.3084,4.17507
1092.0,29.0765,1.83358
1098.0,29.0787,2.48476
1104.0,28.9694,3.08947
1110.0,29.1483,0.647228
1116.0,29.9738,1.81696
1122.0,31.1464,2.94653
1128.0,31.8264,0.521066
1134.0,31.6487,0.164848
1140.0,31.2836,1.19391
1146.0,31.4183,0.887912
1152.0,30.6915,0.180079
1158.0,32.0607,1.39853
1164.0,32.5016,3.64342
1170.0,30.6352,2.70443
1176.0,33.3321,6.04061
1182.0,32.6613,7.8086
1188.0,33.0018,6.61092
1194.0,34.1614,5.19865
1200.0,34.9466,2.85433
1206.0,34.9707,4.63796
1212.0,33.8309,4.61576
1218.0,33.5274,3.08094
1224.0,34.2808,5.70947
1230.0,35.7335,7.29074
1236.0,36.2466,6.09995
1242.0,36.0271,6.17085
1248.0,36.1394,7.94338
1254.0,37.7387,4.14288
1260.0,38.889,4.30307
1266.0,39.2815,4.36952
1272.0,40.4831,5.129
1278.0,42.025,3.59523
1284.0,41.2417,6.54635
1290.0,41.4567,5.82218
1296.0,42.6571,6.72397
1302.0,41.5571,10.3974
1308.0,41.1437,10.4881
1314.0,42.962,12.609
1320.0,44.3686,13.0673
1326.0,42.6996,11.9534
1332.0,42.7787,13.1459
1338.0,42.9239,12.9872
1344.0,43.7458,14.4086
1350.0,43.3731,16.407
1356.0,42.9713,15.2225
1362.0,42.6715,15.7465
1368.0,44.4007,18.0332
1374.0,43.4547,17.9288
1380.0,42.9844,16.9474
1386.0,41.8883,15.3364
1392.0,42.8918,15.3411
1398.0,41.3999,15.5297
1404.0,42.4871,14.2153
1410.0,41.5641,13.2296
1416.0,39.4853,12.5278
1422.0,39.4924,11.6802
1428.0,41.2544,10.3223
1434.0,41.9211,9.53545
1440.0,41.3701,11.8912
1446.0,42.3711,12.4586
1452.0,41.6216,10.0143
1458.0,41.1482,11.7794
1464.0,43.348,11.4208
1470.0,42.0929,11.5664
1476.0,42.3271,10.1756
1482.0,43.5382,10.1427
1488.0,35.0523,
1494.0,36.1637,
1500.0,36.7882,