Folder: cone-db/Exp-Data_Prepared-Final/FTT-White/2019

File: Balsa_20kW_vert_Average.csv
Time (s),HRRPUA (kW/m2),Uc HRRPUA (kW/m2)
4.0,-0.318564,-3.89301
7.0,-0.542924,-2.85769
10.0,-1.78453,-3.50671
13.0,-0.588985,-3.09099
16.0,-1.08355,-3.33823
19.0,-0.134314,-3.55166
22.0,-0.717783,-3.27772
25.0,0.221342,3.48801
28.0,-0.653424,-3.28836
31.0,-0.204972,-3.58396
34.0,-0.964458,-3.6665
37.0,-0.619641,-3.99255
40.0,-1.8678,-2.88211
43.0,-0.758143,-4.24785
46.0,-0.906659,-2.45678
49.0,-0.346822,-4.30874
52.0,-1.18194,-2.67481
55.0,-0.649391,-4.18661
58.0,-1.00704,-2.34063
61.0,-0.910649,-3.85246
64.0,-0.470861,-2.22993
67.0,-0.293075,-3.55862
70.0,0.213481,2.70917
73.0,0.185839,4.15623
76.0,0.664285,4.26948
79.0,0.62012,5.1035
82.0,2.08165,5.33847
85.0,1.1894,5.3559
88.0,1.85112,5.84551
91.0,1.18326,5.38107
94.0,2.96189,6.83135
97.0,1.6291,5.7594
100.0,2.86564,6.58852
103.0,1.00274,5.82854
106.0,2.88914,6.99862
109.0,1.32572,5.91702
112.0,3.22884,7.34444
115.0,1.69068,6.28747
118.0,3.28799,7.94141
121.0,2.85421,5.49175
124.0,4.04029,8.32692
127.0,3.42324,5.88783
130.0,4.30491,7.58206
133.0,4.47068,4.95005
136.0,5.38716,7.10335
139.0,5.71173,5.89072
142.0,6.09842,8.14765
145.0,6.60933,6.4805
148.0,6.66982,8.67823
151.0,7.15648,7.05297
154.0,7.26257,8.09272
157.0,7.83188,6.47478
160.0,7.85006,7.47218
163.0,8.7731,5.95707
166.0,8.61221,7.01198
169.0,9.58203,5.71937
172.0,8.9895,6.83316
175.0,10.8159,6.02386
178.0,10.5435,6.61941
181.0,12.1481,6.44295
184.0,11.613,6.86215
187.0,12.6847,7.85778
190.0,11.6964,7.11108
193.0,13.4678,7.30855
196.0,12.6306,6.30588
199.0,14.2343,6.66329
202.0,13.1088,5.46204
205.0,12.8854,6.49996
208.0,12.0081,6.01948
211.0,11.9074,6.07206
214.0,12.5402,4.21757
217.0,13.1349,5.58704
220.0,13.6645,3.965
223.0,14.1444,5.45712
226.0,14.5523,3.78178
229.0,15.1725,5.41787
232.0,15.5613,3.59686
235.0,15.8379,5.46853
238.0,16.0546,3.60828
241.0,16.0887,5.09365
244.0,16.466,2.90315
247.0,16.5668,5.12726
250.0,17.4764,3.03831
253.0,17.0465,4.37268
256.0,17.819,2.39338
259.0,18.1807,2.71913
262.0,17.5575,2.01267
265.0,18.0176,4.06859
268.0,17.9201,1.29534
271.0,18.5453,3.4173
274.0,18.7241,1.88769
277.0,18.8756,3.02404
280.0,19.0384,2.84993
283.0,18.4359,2.53532
286.0,17.6838,3.79844
289.0,17.862,2.66331
292.0,17.716,3.2515
295.0,17.3561,2.02614
298.0,17.2385,2.8172
301.0,16.5597,1.52352
304.0,17.4899,2.1344
307.0,17.5361,1.58801
310.0,19.3004,1.52225
313.0,18.644,2.19421
316.0,18.7953,1.02971
319.0,19.1897,1.74108
322.0,19.2369,0.637888
325.0,18.9943,0.462203
328.0,17.9483,1.75045
331.0,18.2679,1.3584
334.0,18.2172,3.13592
337.0,18.5624,1.58538
340.0,18.5038,3.78288
343.0,19.1096,1.39831
346.0,18.5248,3.16157
349.0,18.8058,1.35849
352.0,17.3403,3.63594
355.0,18.8969,1.60431
358.0,17.8539,3.61448
361.0,18.8205,2.36913
364.0,17.6613,3.86123
367.0,19.0299,2.286
370.0,17.6991,4.08322
373.0,19.5466,3.512
376.0,17.8382,3.86709
379.0,19.325,1.9172
382.0,18.612,3.57095
385.0,18.745,1.52015
388.0,19.9778,3.45939
391.0,20.8882,1.13824
394.0,20.7581,4.38975
397.0,18.6542,0.429378
400.0,19.3662,2.54237
403.0,18.448,2.72611
406.0,19.4611,0.925737
409.0,17.3985,2.14114
412.0,17.8407,1.14105
415.0,16.5053,0.272376
418.0,17.9982,0.70558
421.0,16.6821,0.012268
424.0,17.6525,0.711894
427.0,16.6514,0.14269
430.0,17.7109,1.256
433.0,16.1431,0.382083
436.0,16.8386,3.3595
439.0,15.1544,0.220948
442.0,17.4234,2.88155
445.0,17.1934,2.77485
448.0,18.6096,0.830592
451.0,18.0102,3.61937
454.0,19.5103,2.37885
457.0,17.97,2.7873
460.0,17.0314,2.22739
463.0,16.8953,3.77536
466.0,16.4028,3.71312
469.0,16.4113,1.48982
472.0,19.3824,
475.0,14.2287,
478.0,18.9781,
481.0,15.8471,
484.0,19.6972,
487.0,17.2049,
490.0,18.397,
493.0,16.3312,
496.0,19.0291,
499.0,15.9922,
502.0,16.224,
505.0,14.9339,
508.0,16.145,
511.0,14.2676,
514.0,13.6646,
517.0,14.1868,
520.0,12.7375,
523.0,13.2049,
526.0,13.2296,
529.0,16.1933,
532.0,14.4371,
535.0,18.0712,
538.0,16.3238,
541.0,18.9631,
544.0,15.3019,
547.0,18.5916,
550.0,15.2957,
553.0,20.9421,
556.0,16.2393,
559.0,21.1618,
562.0,16.2818,
565.0,20.1599,
568.0,13.369,
571.0,16.8217,
574.0,12.3312,
577.0,17.1953,
580.0,14.621,
583.0,15.9524,
586.0,13.0938,
589.0,16.8832,
592.0,14.4856,
595.0,15.1906,
598.0,15.2307,
601.0,16.7237,
604.0,16.3943,
607.0,17.9283,
610.0,16.0917,
613.0,16.926,
616.0,16.9531,
619.0,16.5436,
622.0,18.2015,
625.0,14.3849,
628.0,16.1812,
631.0,15.1221,
634.0,19.3998,
637.0,15.9497,
640.0,19.7185,
643.0,14.3691,
646.0,18.8718,
649.0,14.6928,
652.0,19.3262,
655.0,15.6679,
658.0,21.7254,
661.0,16.8053,
664.0,20.88,
667.0,15.5637,
670.0,20.4574,
673.0,15.3244,
676.0,18.0992,
679.0,14.2825,
682.0,17.8624,
685.0,11.388,
688.0,15.0348,
691.0,13.5999,
694.0,15.7939,
697.0,14.0493,
700.0,15.252,
703.0,14.2995,
706.0,14.4715,
709.0,15.1566,
712.0,15.3134,
715.0,16.0609,
718.0,14.1063,
721.0,14.392,
724.0,13.5002,
727.0,14.8765,
730.0,11.3783,
733.0,14.4608,
736.0,12.3262,
739.0,16.1009,
742.0,11.3823,
745.0,17.5207,
748.0,12.7519,
751.0,16.0856,
754.0,9.99996,
757.0,16.0633,
760.0,10.2074,
763.0,15.1044,
766.0,12.6222,
769.0,17.9065,
772.0,12.6774,
775.0,15.6274,
778.0,12.4033,
781.0,15.921,
784.0,11.8189,
787.0,13.2921,
790.0,10.8373,
793.0,12.493,
796.0,12.1253,
799.0,13.6468,
802.0,11.6984,
805.0,13.1699,
808.0,14.2478,
811.0,12.9542,
814.0,13.5781,
817.0,12.6702,
820.0,13.3795,
823.0,11.3075,
826.0,13.8616,
829.0,11.9058,
832.0,15.4676,
835.0,11.1082,
838.0,14.6041,
841.0,9.57379,
844.0,15.0083,
847.0,11.395,
850.0,15.0342,
853.0,10.9551,
856.0,15.7957,
859.0,10.2759,
862.0,15.2715,
864.0,12.3865,

File: Ipe_20kW_vert_Average.csv
Time (s),HRRPUA (kW/m2),Uc HRRPUA (kW/m2)
4.0,1.3759,
11.0,-0.457806,-1.45884
18.0,-0.669077,-2.47293
25.0,-1.11846,-3.55468
32.0,-0.338639,-3.47486
39.0,-0.785628,-1.1895
46.0,-0.0469261,-1.98522
53.0,1.52577,2.32687
60.0,0.609299,3.77392
67.0,-0.723547,-3.19484
74.0,-1.36926,-0.954424
81.0,-1.02638,-3.46196
88.0,1.03531,4.66727
95.0,1.09045,3.25266
102.0,-0.445856,-2.66195
109.0,-0.663526,-0.267991
116.0,-0.124282,-1.39432
123.0,0.310208,3.49198
130.0,1.29784,2.71312
137.0,0.246135,3.40681
144.0,-1.63755,-0.343643
151.0,0.219894,3.70419
158.0,-0.728719,-3.06579
165.0,0.137477,1.89434
172.0,-1.04816,-2.85498
179.0,-1.59347,-2.16379
186.0,-0.354127,-2.37057
193.0,0.317383,0.816337
200.0,0.649003,3.61009
207.0,-0.0946805,-4.38096
214.0,-1.13021,-2.69673
221.0,-0.759557,-3.08308
228.0,0.593353,4.98945
235.0,0.250662,2.66795
242.0,-0.357183,-2.19816
249.0,-1.01108,-1.46243
256.0,-0.240899,-1.46071
263.0,0.343821,3.53343
270.0,1.1111,2.68177
277.0,-0.766967,-1.86613
284.0,-2.18683,-1.78259
291.0,0.123181,5.45176
298.0,0.275775,3.41529
305.0,0.173935,1.93851
312.0,-0.361448,-2.19668
319.0,-2.08273,-1.96433
326.0,-0.634844,-3.16266
333.0,-0.527915,-2.9442
340.0,-0.76273,-1.14121
347.0,-1.54167,-2.75872
354.0,-0.45756,-1.61122
361.0,0.626357,3.39828
368.0,0.0544504,4.18054
375.0,0.48505,2.46215
382.0,-2.98389,-1.34351
389.0,-2.63505,-1.9959
396.0,-0.712732,-4.3473
403.0,-0.398491,-3.59262
410.0,0.0169133,2.13076
417.0,0.609469,1.93762
424.0,0.507541,1.38899
431.0,0.336772,2.84782
438.0,-0.456433,-3.40265
445.0,-2.05557,-1.74334
452.0,-2.44949,-1.55166
459.0,-0.85502,-2.20081
466.0,-0.606899,-4.24702
473.0,0.494203,2.62795
480.0,0.787722,3.64848
487.0,-0.978802,-0.584444
494.0,-0.369964,-1.17645
501.0,3.00938,1.66325
508.0,1.74351,4.01201
515.0,1.8623,3.28113
522.0,-1.8591,-1.74538
529.0,-0.586258,-4.44062
536.0,0.482791,5.6094
543.0,0.456797,4.37845
550.0,-0.109446,-3.57914
557.0,-1.37843,-1.34514
564.0,-1.89709,-1.70848
571.0,-0.17867,-3.56579
578.0,0.386679,3.45542
585.0,-1.62691,-3.19831
592.0,-2.62885,-0.921281
599.0,-2.0157,-4.2246
606.0,-0.712613,-3.31781
613.0,0.227093,2.95419
620.0,-0.892984,-0.319953
627.0,-1.06192,-0.759171
634.0,-0.966089,-1.64838
641.0,1.45753,1.95123
648.0,0.279217,2.39453
655.0,-1.36829,-2.8625
662.0,-3.21395,-2.42829
669.0,-0.960503,-2.90062
676.0,0.658073,2.84795
683.0,0.0976169,4.26659
690.0,-0.518042,-3.68185
697.0,0.311941,2.18759
704.0,1.14608,5.3917
711.0,1.38359,4.86329
718.0,-0.696868,-3.91638
725.0,-3.10061,-4.04337
732.0,-3.34655,-2.73691
739.0,-0.803379,-1.86612
746.0,0.281561,3.07768
753.0,0.57935,3.44495
760.0,-0.63405,-1.78749
767.0,-2.4979,-1.57712
774.0,-0.931236,-3.55261
781.0,-0.195573,-4.44482
788.0,-1.18825,-2.38555
795.0,-2.32175,-1.53219
802.0,-3.00381,-1.01169
809.0,-0.802816,-1.97012
816.0,-0.67118,-2.01157
823.0,0.196218,4.29519
830.0,-1.08308,-2.4108
837.0,-2.82396,-1.92815
844.0,-0.927649,-2.68034
851.0,-0.6282,-3.77798
858.0,-0.963672,-5.38588
865.0,-2.66043,-3.80578
872.0,-2.67471,-0.996259
879.0,-0.996027,-2.80073
886.0,0.0247369,4.01878
893.0,-0.829878,-2.98014
900.0,-2.50236,-2.27737
907.0,-2.38172,-3.2947
914.0,-1.45475,-5.98262
921.0,-0.692353,-2.96295
928.0,-0.307363,-3.52404
935.0,-1.98964,-1.05997
942.0,-1.49744,-3.40378
949.0,0.15401,3.39076
956.0,-0.0690127,-3.07535
963.0,0.0912457,3.52979
970.0,-0.352122,-2.22128
977.0,-0.769678,-2.21893
984.0,0.278509,2.78212
991.0,-0.405647,-3.96333
998.0,-0.470525,-1.51808
1005.0,-1.33343,-1.24245
1012.0,0.0768961,2.2493
1019.0,1.35684,3.22432
1026.0,0.489691,4.20812
1033.0,-1.37574,-2.85221
1040.0,-1.91319,-1.19521
1047.0,-1.14848,-2.56852
1054.0,-0.191956,-1.90312
1061.0,-0.174583,-2.66642
1068.0,-0.271591,-2.16366
1075.0,-1.53788,-0.666996
1082.0,0.585648,4.18457
1089.0,0.891433,4.44589
1096.0,0.584338,2.80789
1103.0,-1.44518,-2.33095
1110.0,-1.2232,-0.760271
1117.0,-0.979242,-2.80394
1124.0,0.701369,2.72599
1131.0,-0.33053,-3.34344
1138.0,-1.78762,-1.93711
1145.0,-2.26326,-1.46849
1152.0,-1.72369,-2.12474
1159.0,0.423017,3.07277
1166.0,-0.543067,-4.37576
1173.0,-1.71738,-3.45443
1180.0,-2.31641,-1.50686
1187.0,-0.970856,-4.55315
1194.0,0.0819548,4.48633
1201.0,0.315953,3.60273
1208.0,-1.39782,-3.29536
1215.0,-0.755868,-3.12271
1222.0,-0.14281,-2.58066
1229.0,0.60245,2.20239
1236.0,-0.0394618,-2.93989
1243.0,-0.182274,-1.68389
1250.0,-1.4964,-1.47199
1257.0,0.550296,3.18509
1264.0,0.725675,4.40171
1271.0,0.232347,5.04589
1278.0,-0.74755,-3.92744
1285.0,-0.921949,-3.26058
1292.0,-0.314513,-3.01128
1299.0,-0.797488,-4.26631
1306.0,-1.42789,-3.49111
1313.0,-1.98201,-0.729695
1320.0,-2.71776,-0.838171
1327.0,-1.35044,-1.60656
1334.0,-0.229421,-1.87856
1341.0,-0.586367,-1.93399
1348.0,-1.50889,-0.503221
1355.0,-1.96,-2.72081
1362.0,1.34861,2.41901
1369.0,1.98643,1.91154
1376.0,1.17861,3.30599
1383.0,-0.61898,-1.58296
1390.0,-1.41812,-2.83862
1397.0,-0.386164,-5.48532
1404.0,1.00198,3.15244
1411.0,-0.0673829,-4.02872
1418.0,-1.98305,-1.81753
1425.0,0.264762,2.25735
1432.0,1.1446,4.03472
1439.0,2.47823,4.50993
1446.0,1.41511,2.46718
1453.0,-1.33664,-1.59305
1460.0,-0.433931,-2.16728
1467.0,2.32853,2.75821
1474.0,2.33036,2.64789
1481.0,1.06288,2.13971
1488.0,-0.125204,-0.796589
1495.0,1.46874,3.53431
1502.0,3.11513,4.8374
1509.0,3.44278,2.83697
1516.0,2.50133,2.28837
1523.0,1.28717,0.94061
1530.0,1.68471,2.32234
1537.0,4.2986,1.92495
1544.0,3.74457,3.64285
1551.0,4.12982,4.07372
1558.0,3.06818,2.00011
1565.0,3.24018,1.56127
1572.0,4.72339,2.48662
1579.0,4.11365,3.43032
1586.0,2.65072,3.7198
1593.0,1.90044,3.44892
1600.0,4.62498,3.20714
1607.0,7.28817,3.41319
1614.0,8.34168,3.90082
1621.0,7.25804,2.91852
1628.0,6.6668,1.24362
1635.0,6.75762,2.10352
1642.0,8.08733,3.24575
1649.0,8.16028,4.73247
1656.0,7.91086,3.5519
1663.0,7.09669,2.8694
1670.0,9.55366,2.11429
1677.0,10.3692,3.62649
1684.0,10.6474,4.0173
1691.0,11.491,1.74567
1698.0,10.7117,1.36956
1705.0,11.5575,2.28757
1712.0,12.4863,2.08661
1719.0,13.2928,3.00197
1726.0,11.6192,1.81577
1733.0,12.448,0.769818
1740.0,14.708,2.12649
1747.0,16.2214,2.68078
1754.0,15.4369,2.82696
1761.0,14.1232,2.27702
1768.0,12.1708,0.873219
1775.0,14.8848,2.45192
1782.0,15.9876,1.92439
1789.0,16.5576,1.42001
1796.0,15.9306,2.58435
1803.0,15.1052,1.59246
1810.0,15.9691,3.54657
1817.0,16.6912,4.0802
1824.0,16.6354,2.91657
1831.0,15.6754,2.19307
1838.0,16.1358,0.480284
1845.0,17.9226,1.95919
1852.0,18.6643,1.2134
1859.0,18.9563,2.11234
1866.0,16.931,1.10283
1873.0,16.7038,0.664092
1880.0,17.116,2.63008
1887.0,19.3527,1.44724
1894.0,20.7496,3.38754
1901.0,19.8267,2.11465
1908.0,18.079,1.06378
1915.0,18.7512,0.0718719
1922.0,19.465,1.715
1929.0,20.1689,5.55863
1936.0,17.2979,0.182675
1943.0,17.2883,1.45336
1950.0,19.1684,4.82233
1957.0,20.306,2.35027
1964.0,21.7882,4.59945
1971.0,20.7864,1.58921
1978.0,20.211,2.43574
1985.0,26.4691,
1992.0,22.0506,
1999.0,19.8378,
2006.0,21.5958,
2013.0,22.9695,
2017.0,20.5359,