Folder: cone-db/Exp-Data_Prepared-Final/FTT-White/2020

File: Purpleheart_50kW_hor_Average.csv
Time (s),HRRPUA (kW/m2),Uc HRRPUA (kW/m2)
0.0,1.23701,1.32382
4.0,1.15058,2.47709
8.0,-1.34189,-0.967353
12.0,0.00871682,1.55742
16.0,0.941384,1.82737
20.0,-0.530532,-1.99112
24.0,3.18632,2.29587
28.0,0.972044,2.74879
32.0,-0.911594,-1.47997
36.0,1.2725,0.564516
40.0,0.175406,0.253509
44.0,-0.242181,-1.9101
48.0,0.264942,1.05875
52.0,-0.0898788,-3.35432
56.0,41.3791,32.6698
60.0,83.8723,78.1956
64.0,132.36,63.1297
68.0,171.527,10.8342
72.0,184.126,8.09498
76.0,183.324,14.7833
80.0,175.313,17.23
84.0,161.832,13.728
88.0,153.335,10.7185
92.0,146.256,6.88112
96.0,140.984,2.60995
100.0,136.841,2.59963
104.0,131.427,3.44942
108.0,122.581,3.44192
112.0,120.622,2.27695
116.0,115.396,1.60714
120.0,112.456,0.943753
124.0,109.131,4.7037
128.0,107.267,3.72564
132.0,105.915,2.30255
136.0,103.557,4.50704
140.0,103.149,2.33901
144.0,98.0317,4.64446
148.0,96.7095,4.27987
152.0,94.9552,4.48024
156.0,93.6407,4.48249
160.0,93.8324,4.97263
164.0,91.77,3.67232
168.0,91.5595,3.63185
172.0,91.7124,2.89517
176.0,89.0847,1.41048
180.0,87.4372,2.99429
184.0,86.6334,2.89484
188.0,84.6879,2.46911
192.0,89.328,1.63555
196.0,86.1526,3.1109
200.0,84.3154,3.58234
204.0,87.8074,3.87392
208.0,83.8008,3.3548
212.0,83.947,3.08306
216.0,85.8499,1.92843
220.0,83.2025,2.52822
224.0,81.7402,1.95921
228.0,81.9674,2.33443
232.0,82.9972,2.33147
236.0,81.8202,1.64969
240.0,81.3716,2.7203
244.0,79.8819,3.05904
248.0,79.4257,1.44753
252.0,78.5092,1.97157
256.0,78.7048,2.36621
260.0,78.3666,2.7544
264.0,77.5286,1.22568
268.0,75.7601,1.56447
272.0,75.4819,1.44317
276.0,74.9304,0.95571
280.0,76.3844,3.58193
284.0,74.284,2.21909
288.0,73.2224,2.34614
292.0,72.8496,0.323177
296.0,73.3113,2.08582
300.0,71.1211,2.11426
304.0,73.2122,2.3586
308.0,74.026,3.85119
312.0,72.8879,2.05207
316.0,73.1124,2.06196
320.0,73.4073,4.01595
324.0,71.5369,3.15326
328.0,72.0218,4.33139
332.0,73.7012,1.57674
336.0,71.6578,2.05634
340.0,73.0839,3.06395
344.0,71.6917,2.16492
348.0,73.9319,4.75097
352.0,71.4938,3.27371
356.0,73.1665,2.6236
360.0,73.0816,3.54712
364.0,73.7165,3.33357
368.0,75.1993,2.43808
372.0,75.6371,2.30934
376.0,73.4239,2.99822
380.0,74.3188,0.212562
384.0,75.3738,3.89971
388.0,76.0246,4.52932
392.0,75.2504,1.67239
396.0,75.7518,1.57247
400.0,77.5739,4.67963
404.0,78.2813,2.1128
408.0,79.9401,3.82895
412.0,78.1552,3.23299
416.0,77.4784,1.85207
420.0,79.0569,0.64373
424.0,80.2141,3.03201
428.0,81.0903,5.69769
432.0,81.5146,3.45587
436.0,84.3336,1.38414
440.0,83.2093,3.75229
444.0,85.4682,2.02388
448.0,87.2195,3.62967
452.0,87.6383,2.25719
456.0,89.3774,3.51113
460.0,91.6438,4.78797
464.0,89.4905,4.11514
468.0,93.0941,5.40827
472.0,93.9294,3.9048
476.0,96.3315,4.42472
480.0,97.5584,4.75948
484.0,100.026,3.05239
488.0,100.228,3.73945
492.0,101.862,6.4623
496.0,107.052,4.5597
500.0,108.212,2.82794
504.0,110.256,7.19445
508.0,115.351,8.76759
512.0,115.992,8.43095
516.0,117.969,6.72883
520.0,123.04,6.26725
524.0,127.678,5.69651
528.0,135.439,8.49368
532.0,137.49,8.72519
536.0,143.958,4.92474
540.0,148.763,6.21468
544.0,154.532,1.48726
548.0,159.226,5.85793
552.0,167.596,3.36579
556.0,174.739,6.4529
560.0,184.816,8.209
564.0,186.812,8.61999
568.0,188.651,10.7843
572.0,197.098,9.89
576.0,205.293,8.62851
580.0,210.463,13.5236
584.0,211.976,14.0772
588.0,215.635,14.8032
592.0,216.786,10.1067
596.0,220.563,13.2239
600.0,220.477,7.00132
604.0,226.672,14.8015
608.0,227.331,8.64827
612.0,232.617,14.2058
616.0,231.157,13.3335
620.0,228.677,18.6663
624.0,232.457,19.144
628.0,233.765,18.7629
632.0,229.68,17.1912
636.0,231.621,15.9577
640.0,227.387,16.5453
644.0,227.117,19.7818
648.0,224.927,17.109
652.0,221.218,15.6586
656.0,210.754,17.5292
660.0,205.262,19.3497
664.0,198.645,15.6366
668.0,191.602,15.0901
672.0,185.918,16.3974
676.0,175.699,12.5272
680.0,167.919,8.26419
684.0,158.729,11.6771
688.0,150.253,16.3481
692.0,144.133,16.7853
696.0,133.38,17.7675
700.0,126.072,13.9634
704.0,120.709,15.0569
708.0,110.822,15.762
712.0,106.652,15.9448
716.0,102.77,18.8244
720.0,96.589,18.1479
724.0,92.5483,13.1727
728.0,88.8325,16.4406
732.0,83.2924,15.6228
736.0,79.4175,13.1917
740.0,74.1277,13.7337
744.0,71.0513,14.0649
748.0,69.634,10.4655
752.0,68.3427,10.6971
756.0,65.6312,11.1805
760.0,63.9008,9.34265
764.0,59.6353,8.70526
768.0,59.3056,9.35429
772.0,57.362,8.38155
776.0,54.4763,8.28796
780.0,54.6603,8.89281
784.0,52.9913,4.46893
788.0,50.0398,5.12712
792.0,53.1613,3.78591
796.0,52.4085,3.81893
800.0,49.9817,3.89742
804.0,49.0956,5.65483
808.0,47.6731,4.20294
812.0,45.8301,3.45882
816.0,47.4977,2.80074
820.0,47.0955,2.26962
824.0,44.1901,1.57072
828.0,45.2062,2.81397
832.0,46.193,2.70766
836.0,43.7338,5.1311
840.0,42.1464,3.49169
844.0,44.6919,2.78615
848.0,40.478,1.70761
852.0,42.2951,3.15258
856.0,43.6705,2.63347
860.0,41.6189,2.23553
864.0,42.0971,2.58061
868.0,42.2633,3.3741
872.0,40.5333,2.8085
876.0,41.1244,1.45678
880.0,41.1417,1.66137
884.0,40.5229,1.08944
888.0,40.1787,3.12567
892.0,39.8922,3.18339
896.0,40.5015,2.33294
900.0,38.6477,0.621259
904.0,39.8607,2.29241
908.0,42.0375,1.1578
912.0,38.7681,2.20322
916.0,39.5062,5.03369
920.0,40.5042,2.38933
924.0,40.3666,0.948218
928.0,40.4683,4.56109
932.0,39.4154,0.811223
936.0,40.4241,3.86067
940.0,37.9903,5.12532
944.0,39.2618,1.21802
948.0,40.7728,2.7722
952.0,37.2257,2.17027
956.0,37.7121,0.895397
960.0,40.3715,0.557019
964.0,35.1279,
968.0,33.681,
972.0,35.5384,
976.0,33.3917,
980.0,33.1221,
984.0,35.7487,
988.0,35.045,
992.0,32.8206,
995.0,35.2194,